,Sub,Run,TR,Onset,Item,Resp,RT,image_on,button_on,button_off,Trial_ID,stim,switchButtonOrientation
0,sub005,2,3,0,,,,,,,,blank,0.0
1,sub005,2,4,2,,,,,,,,blank,0.0
2,sub005,2,5,4,,,,,,,,blank,0.0
3,sub005,2,6,6,D,1,0.6166733079589903,12.002646115142852,13.019383559003472,13.919322100002319,0,stim,1.0
4,sub005,2,7,8,,,,,,,,blank,1.0
5,sub005,2,8,10,,,,,,,,blank,1.0
6,sub005,2,9,12,B,1,0.6333333489019424,18.00395957310684,19.021939698141068,19.92170368717052,1,stim,1.0
7,sub005,2,10,14,,,,,,,,blank,1.0
8,sub005,2,11,16,,,,,,,,blank,1.0
9,sub005,2,12,18,A,1,0.5166689148172736,24.00514481216669,25.02399714011699,25.921782171120867,2,stim,0.0
10,sub005,2,13,20,,,,,,,,blank,0.0
11,sub005,2,14,22,,,,,,,,blank,0.0
12,sub005,2,15,24,,,,,,,,blank,0.0
13,sub005,2,16,26,C,1,0.5166370058432221,32.00528908218257,33.0248245971743,33.92194025614299,3,stim,0.0
14,sub005,2,17,28,,,,,,,,blank,0.0
15,sub005,2,18,30,,,,,,,,blank,0.0
16,sub005,2,19,32,,,,,,,,blank,0.0
17,sub005,2,20,34,B,2,0.4666399790439755,40.00533793610521,41.02485666703433,41.921990224160254,4,stim,0.0
18,sub005,2,21,36,,,,,,,,blank,0.0
19,sub005,2,22,38,,,,,,,,blank,0.0
20,sub005,2,23,40,D,2,0.5666905711404979,46.00537418900058,47.02504759305157,47.922042719088495,5,stim,0.0
21,sub005,2,24,42,,,,,,,,blank,0.0
22,sub005,2,25,44,C,2,0.5499742259271443,50.00536534911953,51.025018382119015,51.922017774078995,6,stim,1.0
23,sub005,2,26,46,,,,,,,,blank,1.0
24,sub005,2,27,48,B,1,0.4999404130503535,54.005434500053525,55.02507229917683,55.922107657184824,7,stim,1.0
25,sub005,2,28,50,,,,,,,,blank,1.0
26,sub005,2,29,52,,,,,,,,blank,1.0
27,sub005,2,30,54,A,2,0.5833460309077054,60.00534257013351,61.024258867139,61.92205576598644,8,stim,1.0
28,sub005,2,31,56,,,,,,,,blank,1.0
29,sub005,2,32,58,,,,,,,,blank,1.0
30,sub005,2,33,60,D,2,0.7332882590126246,66.00538650713861,67.02425077208318,67.92201875406317,9,stim,0.0
31,sub005,2,34,62,,,,,,,,blank,0.0
32,sub005,2,35,64,,,,,,,,blank,0.0
33,sub005,2,36,66,,,,,,,,blank,0.0
34,sub005,2,37,68,C,2,0.6001271191053092,74.00535649899393,75.02434410620481,75.92215318814851,10,stim,1.0
35,sub005,2,38,70,,,,,,,,blank,1.0
36,sub005,2,39,72,,,,,,,,blank,1.0
37,sub005,2,40,74,A,2,0.5666157340165228,80.00556959002279,81.02511877799407,81.92222492699511,11,stim,1.0
38,sub005,2,41,76,,,,,,,,blank,1.0
39,sub005,2,42,78,D,2,0.6332914030645043,84.00550361606292,85.02435934613459,85.92218987899832,12,stim,0.0
40,sub005,2,43,80,,,,,,,,blank,0.0
41,sub005,2,44,82,,,,,,,,blank,0.0
42,sub005,2,45,84,B,2,0.5666515899356455,90.0055506140925,91.02439178409986,91.92224642098881,13,stim,0.0
43,sub005,2,46,86,,,,,,,,blank,0.0
44,sub005,2,47,88,,,,,,,,blank,0.0
45,sub005,2,48,90,A,2,0.5833433850202709,96.00555547210388,97.02464579208754,97.92226424207911,14,stim,1.0
46,sub005,2,49,92,,,,,,,,blank,1.0
47,sub005,2,50,94,B,2,0.5833284899126738,100.0055463782046,101.02448272402398,101.92230010009371,15,stim,0.0
48,sub005,2,51,96,,,,,,,,blank,0.0
49,sub005,2,52,98,,,,,,,,blank,0.0
50,sub005,2,53,100,,,,,,,,blank,0.0
51,sub005,2,54,102,C,1,0.8667066809721291,108.00563069502823,109.02470552711748,109.92229485302232,16,stim,0.0
52,sub005,2,55,104,,,,,,,,blank,0.0
53,sub005,2,56,106,A,2,0.5832830730360001,112.00568195804954,113.02455032709986,113.92235954711214,17,stim,1.0
54,sub005,2,57,108,,,,,,,,blank,1.0
55,sub005,2,58,110,,,,,,,,blank,1.0
56,sub005,2,59,112,D,2,0.4833197840489447,118.00571174407378,119.02475346717983,119.92234569508582,18,stim,0.0
57,sub005,2,60,114,,,,,,,,blank,0.0
58,sub005,2,61,116,,,,,,,,blank,0.0
59,sub005,2,62,118,,,,,,,,blank,0.0
60,sub005,2,63,120,B,1,0.5499920630827546,126.00585187599063,127.0255274400115,127.92248258017935,19,stim,1.0
61,sub005,2,64,122,,,,,,,,blank,1.0
62,sub005,2,65,124,,,,,,,,blank,1.0
63,sub005,2,66,126,C,1,0.5500846970826387,132.00581715605222,133.02569457818754,133.9225868540816,20,stim,0.0
64,sub005,2,67,128,,,,,,,,blank,0.0
65,sub005,2,68,130,,,,,,,,blank,0.0
66,sub005,2,69,132,D,2,0.46661917585879564,138.00593958212994,139.02545967302285,139.9225817231927,21,stim,0.0
67,sub005,2,70,134,,,,,,,,blank,0.0
68,sub005,2,71,136,C,2,0.5499228809494525,142.00597283313982,143.0255884360522,143.92258080816828,22,stim,1.0
69,sub005,2,72,138,,,,,,,,blank,1.0
70,sub005,2,73,140,A,2,0.4833372498396784,146.00592163414694,147.02562231919728,147.9226547679864,23,stim,1.0
71,sub005,2,74,142,,,,,,,,blank,1.0
72,sub005,2,75,144,,,,,,,,blank,1.0
73,sub005,2,76,146,C,2,0.5333424399141222,152.0058884981554,153.02483545802534,153.92260198807344,24,stim,1.0
74,sub005,2,77,148,,,,,,,,blank,1.0
75,sub005,2,78,150,,,,,,,,blank,1.0
76,sub005,2,79,152,,,,,,,,blank,1.0
77,sub005,2,80,154,B,2,0.5167868360877037,160.00587587198243,161.02498642215505,161.92260370310396,25,stim,0.0
78,sub005,2,81,156,,,,,,,,blank,0.0
79,sub005,2,82,158,,,,,,,,blank,0.0
80,sub005,2,83,160,D,1,0.6667822019662708,166.0059257161338,167.02490972913802,167.9227907420136,26,stim,1.0
81,sub005,2,84,162,,,,,,,,blank,1.0
82,sub005,2,85,164,,,,,,,,blank,1.0
83,sub005,2,86,166,C,1,0.5999572270084172,172.00602669198997,173.02489543007687,173.92265772400424,27,stim,0.0
84,sub005,2,87,168,,,,,,,,blank,0.0
85,sub005,2,88,170,B,1,0.5167050049640238,176.00600589904934,177.02492088312283,177.92271981900558,28,stim,1.0
86,sub005,2,89,172,,,,,,,,blank,1.0
87,sub005,2,90,174,,,,,,,,blank,1.0
88,sub005,2,91,176,A,1,0.4499889190774411,182.00609173602425,183.02498939610086,183.92279120814055,29,stim,0.0
89,sub005,2,92,178,,,,,,,,blank,0.0
90,sub005,2,93,180,,,,,,,,blank,0.0
91,sub005,2,94,182,,,,,,,,blank,0.0
92,sub005,2,95,184,D,1,0.4833684319164604,190.00605979911052,191.02500178618357,191.92284254310653,30,stim,1.0
93,sub005,2,96,186,,,,,,,,blank,1.0
94,sub005,2,97,188,B,2,0.6166591611690819,194.00617146701552,195.02518336498179,195.92275079106912,31,stim,0.0
95,sub005,2,98,190,,,,,,,,blank,0.0
96,sub005,2,99,192,,,,,,,,blank,0.0
97,sub005,2,100,194,,,,,,,,blank,0.0
98,sub005,2,101,196,D,1,0.5166907501406968,202.00613216101192,203.02528866520151,203.92290009511635,32,stim,1.0
99,sub005,2,102,198,,,,,,,,blank,1.0
100,sub005,2,103,200,A,1,0.600073911016807,206.00616396404803,207.02523270901293,207.92288512503728,33,stim,0.0
101,sub005,2,104,202,,,,,,,,blank,0.0
102,sub005,2,105,204,,,,,,,,blank,0.0
103,sub005,2,106,206,,,,,,,,blank,0.0
104,sub005,2,107,208,C,1,0.5001512528397143,214.006253576139,215.02588405506685,215.92300676298328,34,stim,0.0
105,sub005,2,108,210,,,,,,,,blank,0.0
106,sub005,2,109,212,,,,,,,,blank,0.0
107,sub005,2,110,214,A,1,0.5334072089754045,220.00633650808595,221.02598433499224,221.92311324412003,35,stim,0.0
108,sub005,2,111,216,,,,,,,,blank,0.0
109,sub005,2,112,218,,,,,,,,blank,0.0
110,sub005,2,113,220,C,2,0.5499184469226748,226.00647162506357,227.02609377517365,227.92317564599216,36,stim,1.0
111,sub005,2,114,222,,,,,,,,blank,1.0
112,sub005,2,115,224,B,2,0.5167234339751303,230.00641360809095,231.02600441710092,231.92314164200798,37,stim,0.0
113,sub005,2,116,226,,,,,,,,blank,0.0
114,sub005,2,117,228,A,1,0.4500660530757159,234.00643277610652,235.02620657300577,235.92334671714343,38,stim,0.0
115,sub005,2,118,230,,,,,,,,blank,0.0
116,sub005,2,119,232,D,1,0.5000058319419622,238.0064562051557,239.02606763411313,239.92319007311016,39,stim,1.0
117,sub005,2,120,234,,,,,,,,blank,1.0
118,sub005,2,121,236,C,1,0.6499870021361858,242.00655692000873,243.02621335419826,243.92316473508254,40,stim,0.0
119,sub005,2,122,238,,,,,,,,blank,0.0
120,sub005,2,123,240,D,1,0.46661366801708937,246.00657240813598,247.02621480403468,247.92318062810227,41,stim,1.0
121,sub005,2,124,242,,,,,,,,blank,1.0
122,sub005,2,125,244,,,,,,,,blank,1.0
123,sub005,2,126,246,B,2,0.4667340300511569,252.00651970808394,253.02617088216357,253.92329908208922,42,stim,0.0
124,sub005,2,127,248,,,,,,,,blank,0.0
125,sub005,2,128,250,,,,,,,,blank,0.0
126,sub005,2,129,252,A,1,0.5333911390043795,258.0065784731414,259.02612044708803,259.9233076199889,43,stim,0.0
127,sub005,2,130,254,,,,,,,,blank,0.0
128,sub005,2,131,256,B,1,0.5999954929575324,262.0066706610378,263.0265608690679,263.9233327191323,44,stim,1.0
129,sub005,2,132,258,,,,,,,,blank,1.0
130,sub005,2,133,260,C,1,0.5833384268917143,266.006627980154,267.026209784206,267.92335276817903,45,stim,0.0
131,sub005,2,134,262,,,,,,,,blank,0.0
132,sub005,2,135,264,A,1,0.4166758949868381,270.00665278709494,271.0263977951836,271.9233971789945,46,stim,0.0
133,sub005,2,136,266,,,,,,,,blank,0.0
134,sub005,2,137,268,D,1,0.5500663160346448,274.00661768298596,275.0263705709949,275.9233848210424,47,stim,1.0
135,sub005,2,138,270,,,,,,,,blank,1.0
136,sub005,2,139,272,,,,,,,,blank,1.0
137,sub005,2,140,274,,,,,,,,blank,1.0
138,sub005,2,141,276,,,,,,,,blank,1.0
139,sub005,2,142,278,,,,,,,,blank,1.0
