,Sub,Run,TR,Onset,Item,Resp,RT,image_on,button_on,button_off,Trial_ID,stim,switchButtonOrientation
0,sub004,3,3,0,,,,,,,,blank,1.0
1,sub004,3,4,2,,,,,,,,blank,1.0
2,sub004,3,5,4,,,,,,,,blank,1.0
3,sub004,3,6,6,B,1,0.4666767019079998,12.00308944308199,13.019835625076666,13.919766508974135,0,stim,1.0
4,sub004,3,7,8,,,,,,,,blank,1.0
5,sub004,3,8,10,,,,,,,,blank,1.0
6,sub004,3,9,12,,,,,,,,blank,1.0
7,sub004,3,10,14,C,1,0.45001749403309077,20.004419076023623,21.022452382021584,21.92224449198693,1,stim,0.0
8,sub004,3,11,16,,,,,,,,blank,0.0
9,sub004,3,12,18,,,,,,,,blank,0.0
10,sub004,3,13,20,A,2,0.43331424600910395,26.00562475505285,27.024508157977834,27.92223460704554,2,stim,1.0
11,sub004,3,14,22,,,,,,,,blank,1.0
12,sub004,3,15,24,C,2,0.433454334968701,30.00562864704989,31.025339325075038,31.922378625022247,3,stim,1.0
13,sub004,3,16,26,,,,,,,,blank,1.0
14,sub004,3,17,28,,,,,,,,blank,1.0
15,sub004,3,18,30,,,,,,,,blank,1.0
16,sub004,3,19,32,D,2,0.4333639610558748,38.00574594002683,39.025415149051696,39.922517604078166,4,stim,0.0
17,sub004,3,20,34,,,,,,,,blank,0.0
18,sub004,3,21,36,,,,,,,,blank,0.0
19,sub004,3,22,38,,,,,,,,blank,0.0
20,sub004,3,23,40,A,1,0.4166960190050304,46.00587985001039,47.025427591986954,47.92252558900509,5,stim,0.0
21,sub004,3,24,42,,,,,,,,blank,0.0
22,sub004,3,25,44,B,2,0.7166599539341405,50.005852048052475,51.02552302600816,51.92248551407829,6,stim,0.0
23,sub004,3,26,46,,,,,,,,blank,0.0
24,sub004,3,27,48,D,2,0.4333834039280191,54.00575950508937,55.0248178379843,55.92250874801539,7,stim,0.0
25,sub004,3,28,50,,,,,,,,blank,0.0
26,sub004,3,29,52,,,,,,,,blank,0.0
27,sub004,3,30,54,C,2,0.46664540900383145,60.00588146701921,61.025064447079785,61.922565898974426,8,stim,1.0
28,sub004,3,31,56,,,,,,,,blank,1.0
29,sub004,3,32,58,,,,,,,,blank,1.0
30,sub004,3,33,60,,,,,,,,blank,1.0
31,sub004,3,34,62,A,1,0.316672260989435,68.00587440503296,69.02484023408033,69.9226277039852,9,stim,0.0
32,sub004,3,35,64,,,,,,,,blank,0.0
33,sub004,3,36,66,D,1,0.5333220170577988,72.00599059998058,73.0248792860657,73.92255686502904,10,stim,1.0
34,sub004,3,37,68,,,,,,,,blank,1.0
35,sub004,3,38,70,B,2,0.43331171793397516,76.00599923008122,77.02492217102554,77.92261770402547,11,stim,0.0
36,sub004,3,39,72,,,,,,,,blank,0.0
37,sub004,3,40,74,C,2,0.43330776900984347,80.00613014807459,81.02575027907733,81.92276263504755,12,stim,1.0
38,sub004,3,41,76,,,,,,,,blank,1.0
39,sub004,3,42,78,,,,,,,,blank,1.0
40,sub004,3,43,80,D,2,0.44991835998371243,86.00619254307821,87.02594408707228,87.9228088799864,13,stim,0.0
41,sub004,3,44,82,,,,,,,,blank,0.0
42,sub004,3,45,84,,,,,,,,blank,0.0
43,sub004,3,46,86,,,,,,,,blank,0.0
44,sub004,3,47,88,A,2,0.4166964479954913,94.00625317601953,95.02599212806672,95.9228823609883,14,stim,1.0
45,sub004,3,48,90,,,,,,,,blank,1.0
46,sub004,3,49,92,D,1,0.44999773299787194,98.00627544499002,99.02585758804344,99.92295999906491,15,stim,1.0
47,sub004,3,50,94,,,,,,,,blank,1.0
48,sub004,3,51,96,,,,,,,,blank,1.0
49,sub004,3,52,98,B,2,0.38323924702126533,104.00633135100361,105.02593082899693,105.92300763807725,16,stim,0.0
50,sub004,3,53,100,,,,,,,,blank,0.0
51,sub004,3,54,102,D,1,0.45009098399896175,108.00616645300761,109.02534744108561,109.92291599500459,17,stim,1.0
52,sub004,3,55,104,,,,,,,,blank,1.0
53,sub004,3,56,106,B,1,0.48329530598130077,112.00629036000464,113.02519015804864,113.92287162900902,18,stim,1.0
54,sub004,3,57,108,,,,,,,,blank,1.0
55,sub004,3,58,110,,,,,,,,blank,1.0
56,sub004,3,59,112,A,2,0.3999951620353386,118.00624032504857,119.0254611549899,119.9230174049735,19,stim,1.0
57,sub004,3,60,114,,,,,,,,blank,1.0
58,sub004,3,61,116,,,,,,,,blank,1.0
59,sub004,3,62,118,B,2,0.43343030591495335,124.00631168007385,125.02531322708819,125.92318164708558,20,stim,0.0
60,sub004,3,63,120,,,,,,,,blank,0.0
61,sub004,3,64,122,C,1,0.516621754039079,128.00650992698502,129.02612891199533,129.9231217930792,21,stim,0.0
62,sub004,3,65,124,,,,,,,,blank,0.0
63,sub004,3,66,126,,,,,,,,blank,0.0
64,sub004,3,67,128,A,1,0.3999960639048368,134.0065334350802,135.02631953998934,135.92317551304586,22,stim,0.0
65,sub004,3,68,130,,,,,,,,blank,0.0
66,sub004,3,69,132,C,1,0.399921496049501,138.00658332603052,139.0261332889786,139.92327170900535,23,stim,0.0
67,sub004,3,70,134,,,,,,,,blank,0.0
68,sub004,3,71,136,A,2,0.3833575180033222,142.00642398907803,143.02540747798048,143.92314071406145,24,stim,1.0
69,sub004,3,72,138,,,,,,,,blank,1.0
70,sub004,3,73,140,C,1,0.34999981010332704,146.00652578298468,147.02543220901862,147.92316470108926,25,stim,0.0
71,sub004,3,74,142,,,,,,,,blank,0.0
72,sub004,3,75,144,A,1,0.36656810308340937,150.00658554199617,151.02564278407954,151.92316097498406,26,stim,0.0
73,sub004,3,76,146,,,,,,,,blank,0.0
74,sub004,3,77,148,,,,,,,,blank,0.0
75,sub004,3,78,150,D,1,0.48333623399958014,156.00652026303578,157.0255810599774,157.92329643201083,27,stim,1.0
76,sub004,3,79,152,,,,,,,,blank,1.0
77,sub004,3,80,154,,,,,,,,blank,1.0
78,sub004,3,81,156,B,2,0.3999809270026162,162.00664692407008,163.02576921205036,163.9233346170513,28,stim,0.0
79,sub004,3,82,158,,,,,,,,blank,0.0
80,sub004,3,83,160,,,,,,,,blank,0.0
81,sub004,3,84,162,A,2,0.5999868880026042,168.00667838100344,169.02558733103797,169.92331424402073,29,stim,1.0
82,sub004,3,85,164,,,,,,,,blank,1.0
83,sub004,3,86,166,,,,,,,,blank,1.0
84,sub004,3,87,168,C,1,0.4834397629601881,174.00675708102062,175.02641992201097,175.92355644202325,30,stim,0.0
85,sub004,3,88,170,,,,,,,,blank,0.0
86,sub004,3,89,172,,,,,,,,blank,0.0
87,sub004,3,90,174,,,,,,,,blank,0.0
88,sub004,3,91,176,D,1,0.466594694997184,182.00692302407697,183.0264559360221,183.9236096070381,31,stim,1.0
89,sub004,3,92,178,,,,,,,,blank,1.0
90,sub004,3,93,180,,,,,,,,blank,1.0
91,sub004,3,94,182,,,,,,,,blank,1.0
92,sub004,3,95,184,B,2,0.40006211504805833,190.00695859198458,191.0265590630006,191.92359159502666,32,stim,0.0
93,sub004,3,96,186,,,,,,,,blank,0.0
94,sub004,3,97,188,,,,,,,,blank,0.0
95,sub004,3,98,190,D,2,0.4166401110123843,196.00695654307492,197.0268201599829,197.92370173498057,33,stim,0.0
96,sub004,3,99,192,,,,,,,,blank,0.0
97,sub004,3,100,194,C,1,0.4333188639720902,200.00703136308584,201.02678617404308,201.92365563008934,34,stim,0.0
98,sub004,3,101,196,,,,,,,,blank,0.0
99,sub004,3,102,198,,,,,,,,blank,0.0
100,sub004,3,103,200,B,2,0.41673261497635394,206.00689188705292,207.02609115303494,207.92365953605622,35,stim,0.0
101,sub004,3,104,202,,,,,,,,blank,0.0
102,sub004,3,105,204,,,,,,,,blank,0.0
103,sub004,3,106,206,D,2,0.48329096497036517,212.00702553300653,213.02590678306296,213.92369771399535,36,stim,0.0
104,sub004,3,107,208,,,,,,,,blank,0.0
105,sub004,3,108,210,B,1,0.41657588200178,216.00705897808075,217.02621929405723,217.92373743408825,37,stim,1.0
106,sub004,3,109,212,,,,,,,,blank,1.0
107,sub004,3,110,214,,,,,,,,blank,1.0
108,sub004,3,111,216,A,1,0.51666950492654,222.00712433608714,223.02683202701155,223.92388558608945,38,stim,0.0
109,sub004,3,112,218,,,,,,,,blank,0.0
110,sub004,3,113,220,,,,,,,,blank,0.0
111,sub004,3,114,222,,,,,,,,blank,0.0
112,sub004,3,115,224,C,2,0.43336042505688965,230.00725846900605,231.0270020250464,231.92395141604356,39,stim,1.0
113,sub004,3,116,226,,,,,,,,blank,1.0
114,sub004,3,117,228,,,,,,,,blank,1.0
115,sub004,3,118,230,,,,,,,,blank,1.0
116,sub004,3,119,232,D,2,0.4666357919340953,238.00719404406846,239.02632095105946,239.92380776500795,40,stim,0.0
117,sub004,3,120,234,,,,,,,,blank,0.0
118,sub004,3,121,236,,,,,,,,blank,0.0
119,sub004,3,122,238,,,,,,,,blank,0.0
120,sub004,3,123,240,B,2,0.4332880930742249,246.0072414840106,247.0263793449849,247.92386491107754,41,stim,0.0
121,sub004,3,124,242,,,,,,,,blank,0.0
122,sub004,3,125,244,,,,,,,,blank,0.0
123,sub004,3,126,246,A,1,0.38333550409879535,252.0072240959853,253.02640190103557,253.9239816070767,42,stim,0.0
124,sub004,3,127,248,,,,,,,,blank,0.0
125,sub004,3,128,250,B,2,0.4499067609431222,256.0073375630891,257.02623124897946,257.92392960598227,43,stim,0.0
126,sub004,3,129,252,,,,,,,,blank,0.0
127,sub004,3,130,254,,,,,,,,blank,0.0
128,sub004,3,131,256,C,1,0.500003359047696,262.007293503033,263.0265619889833,263.9240360830445,44,stim,0.0
129,sub004,3,132,258,,,,,,,,blank,0.0
130,sub004,3,133,260,D,1,0.45004649308975786,266.00745410099626,267.02731137606315,267.92419452697504,45,stim,1.0
131,sub004,3,134,262,,,,,,,,blank,1.0
132,sub004,3,135,264,,,,,,,,blank,1.0
133,sub004,3,136,266,A,1,0.45006844599265605,272.00747742608655,273.02736240206286,273.9242424169788,46,stim,0.0
134,sub004,3,137,268,,,,,,,,blank,0.0
135,sub004,3,138,270,,,,,,,,blank,0.0
136,sub004,3,139,272,C,1,0.48331399098969996,278.0075325120706,279.02739203802776,279.92429454799276,47,stim,0.0
137,sub004,3,140,274,,,,,,,,blank,0.0
138,sub004,3,141,276,,,,,,,,blank,0.0
139,sub004,3,142,278,,,,,,,,blank,0.0
140,sub004,3,143,280,,,,,,,,blank,0.0
