,Sub,Run,TR,Onset,Item,Resp,RT,image_on,button_on,button_off,Trial_ID,stim,switchButtonOrientation
0,sub004,8,3,0,,,,,,,,blank,0.0
1,sub004,8,4,2,,,,,,,,blank,0.0
2,sub004,8,5,4,,,,,,,,blank,0.0
3,sub004,8,6,6,D,2,0.4166756420163438,11.998759631998837,13.01543070806656,13.915443788049743,0,stim,0.0
4,sub004,8,7,8,,,,,,,,blank,0.0
5,sub004,8,8,10,,,,,,,,blank,0.0
6,sub004,8,9,12,B,1,0.3667794519569725,18.00111953006126,19.020249868975952,19.917846102965996,1,stim,1.0
7,sub004,8,10,14,,,,,,,,blank,1.0
8,sub004,8,11,16,,,,,,,,blank,1.0
9,sub004,8,12,18,A,1,0.4001188789261505,24.001218321034685,25.020913947955705,25.917954500066116,2,stim,0.0
10,sub004,8,13,20,,,,,,,,blank,0.0
11,sub004,8,14,22,,,,,,,,blank,0.0
12,sub004,8,15,24,,,,,,,,blank,0.0
13,sub004,8,16,26,C,2,0.7020371520193294,32.00134293397423,33.02097859606147,33.918058129027486,3,stim,1.0
14,sub004,8,17,28,,,,,,,,blank,1.0
15,sub004,8,18,30,,,,,,,,blank,1.0
16,sub004,8,19,32,,,,,,,,blank,1.0
17,sub004,8,20,34,B,2,0.5833457059925422,40.00146332196891,41.02115274302196,41.91806624701712,4,stim,0.0
18,sub004,8,21,36,,,,,,,,blank,0.0
19,sub004,8,22,38,,,,,,,,blank,0.0
20,sub004,8,23,40,D,2,0.8499862090684474,46.00153870496433,47.02108831098303,47.9181132200174,5,stim,0.0
21,sub004,8,24,42,,,,,,,,blank,0.0
22,sub004,8,25,44,C,1,0.40001256100367755,50.00153233099263,51.02110412705224,51.91815243696328,6,stim,0.0
23,sub004,8,26,46,,,,,,,,blank,0.0
24,sub004,8,27,48,B,2,0.5000095510622486,54.00158873596229,55.021113084978424,55.91818586899899,7,stim,0.0
25,sub004,8,28,50,,,,,,,,blank,0.0
26,sub004,8,29,52,,,,,,,,blank,0.0
27,sub004,8,30,54,A,1,0.38579103408847004,60.00148778397124,61.02058674604632,61.918193232035264,8,stim,0.0
28,sub004,8,31,56,,,,,,,,blank,0.0
29,sub004,8,32,58,,,,,,,,blank,0.0
30,sub004,8,33,60,D,1,0.5166215399513021,66.00154688302428,67.02046399796382,67.9182113710558,9,stim,1.0
31,sub004,8,34,62,,,,,,,,blank,1.0
32,sub004,8,35,64,,,,,,,,blank,1.0
33,sub004,8,36,66,,,,,,,,blank,1.0
34,sub004,8,37,68,C,2,0.46663921198341995,74.00169691897463,75.02127156197093,75.91833027405664,10,stim,1.0
35,sub004,8,38,70,,,,,,,,blank,1.0
36,sub004,8,39,72,,,,,,,,blank,1.0
37,sub004,8,40,74,A,2,0.48334644897840917,80.00175183301326,81.02137920306996,81.91838737996295,11,stim,1.0
38,sub004,8,41,76,,,,,,,,blank,1.0
39,sub004,8,42,78,D,1,0.49998940399382263,84.00183391699102,85.02134919597302,85.91840454202611,12,stim,1.0
40,sub004,8,43,80,,,,,,,,blank,1.0
41,sub004,8,44,82,,,,,,,,blank,1.0
42,sub004,8,45,84,B,1,0.4182174400193617,90.0016494790325,91.02056283596903,91.91835718706716,13,stim,1.0
43,sub004,8,46,86,,,,,,,,blank,1.0
44,sub004,8,47,88,,,,,,,,blank,1.0
45,sub004,8,48,90,A,1,0.6833168640732765,96.00173102796543,97.02068993006833,97.9184468210442,14,stim,0.0
46,sub004,8,49,92,,,,,,,,blank,0.0
47,sub004,8,50,94,B,2,0.5333995149703696,100.00171794800553,101.02068148704711,101.91847959498409,15,stim,0.0
48,sub004,8,51,96,,,,,,,,blank,0.0
49,sub004,8,52,98,,,,,,,,blank,0.0
50,sub004,8,53,100,,,,,,,,blank,0.0
51,sub004,8,54,102,C,2,0.566687328973785,108.00184197700582,109.02074151695706,109.91847176395822,16,stim,1.0
52,sub004,8,55,104,,,,,,,,blank,1.0
53,sub004,8,56,106,A,2,0.5833239170024171,112.00186985195614,113.02092650404666,113.91854040499311,17,stim,1.0
54,sub004,8,57,108,,,,,,,,blank,1.0
55,sub004,8,58,110,,,,,,,,blank,1.0
56,sub004,8,59,112,D,2,0.5832958100363612,118.00203553203028,119.02157058299053,119.91871623205952,18,stim,0.0
57,sub004,8,60,114,,,,,,,,blank,0.0
58,sub004,8,61,116,,,,,,,,blank,0.0
59,sub004,8,62,118,,,,,,,,blank,0.0
60,sub004,8,63,120,B,2,0.5833751839818433,126.00207993399817,127.02183481899556,127.91871517105028,19,stim,0.0
61,sub004,8,64,122,,,,,,,,blank,0.0
62,sub004,8,65,124,,,,,,,,blank,0.0
63,sub004,8,66,126,C,2,0.48688638396561146,132.00212001800537,133.02176030597184,133.91875120298937,20,stim,1.0
64,sub004,8,67,128,,,,,,,,blank,1.0
65,sub004,8,68,130,,,,,,,,blank,1.0
66,sub004,8,69,132,D,1,0.486320436000824,138.0021451850189,139.02177783299703,139.91888772603124,21,stim,1.0
67,sub004,8,70,134,,,,,,,,blank,1.0
68,sub004,8,71,136,C,2,0.4846501210704446,142.00221377098933,143.0217932970263,143.9188292720355,22,stim,1.0
69,sub004,8,72,138,,,,,,,,blank,1.0
70,sub004,8,73,140,A,1,0.45009163999930024,146.00217268103734,147.02182054205332,147.91892544797156,23,stim,0.0
71,sub004,8,74,142,,,,,,,,blank,0.0
72,sub004,8,75,144,,,,,,,,blank,0.0
73,sub004,8,76,146,C,1,0.6333708190359175,152.00226398196537,153.02183488104492,153.91878767497838,24,stim,0.0
74,sub004,8,77,148,,,,,,,,blank,0.0
75,sub004,8,78,150,,,,,,,,blank,0.0
76,sub004,8,79,152,,,,,,,,blank,0.0
77,sub004,8,80,154,B,1,0.40003179002087563,160.00222968601156,161.02127482695505,161.91891621798277,25,stim,1.0
78,sub004,8,81,156,,,,,,,,blank,1.0
79,sub004,8,82,158,,,,,,,,blank,1.0
80,sub004,8,83,160,D,2,0.7200229020090774,166.0023148220498,167.02198584598955,167.91903737396933,26,stim,0.0
81,sub004,8,84,162,,,,,,,,blank,0.0
82,sub004,8,85,164,,,,,,,,blank,0.0
83,sub004,8,86,166,C,1,0.3833348019979894,172.00230122497305,173.02117208996788,173.91890543501358,27,stim,0.0
84,sub004,8,87,168,,,,,,,,blank,0.0
85,sub004,8,88,170,B,1,0.43327531300019473,176.00233390496578,177.02119708503596,177.91900442598853,28,stim,1.0
86,sub004,8,89,172,,,,,,,,blank,1.0
87,sub004,8,90,174,,,,,,,,blank,1.0
88,sub004,8,91,176,A,1,0.43326568393968046,182.00237671402283,183.02143527998123,183.91898641106673,29,stim,0.0
89,sub004,8,92,178,,,,,,,,blank,0.0
90,sub004,8,93,180,,,,,,,,blank,0.0
91,sub004,8,94,182,,,,,,,,blank,0.0
92,sub004,8,95,184,D,1,0.44995884504169226,190.00242126896046,191.02150014101062,191.91903938597534,30,stim,1.0
93,sub004,8,96,186,,,,,,,,blank,1.0
94,sub004,8,97,188,B,1,0.6499799350276589,194.00248736701906,195.02132463501766,195.9190845770063,31,stim,1.0
95,sub004,8,98,190,,,,,,,,blank,1.0
96,sub004,8,99,192,,,,,,,,blank,1.0
97,sub004,8,100,194,,,,,,,,blank,1.0
98,sub004,8,101,196,D,1,0.48338278697337955,202.0025325330207,203.02141445304733,203.91918430000078,32,stim,1.0
99,sub004,8,102,198,,,,,,,,blank,1.0
100,sub004,8,103,200,A,1,0.48334626108407974,206.00255710096098,207.02146713098045,207.91921628103592,33,stim,0.0
101,sub004,8,104,202,,,,,,,,blank,0.0
102,sub004,8,105,204,,,,,,,,blank,0.0
103,sub004,8,106,206,,,,,,,,blank,0.0
104,sub004,8,107,208,C,2,0.5500317490659654,214.0027170199901,215.02226772299036,215.91934192506596,34,stim,1.0
105,sub004,8,108,210,,,,,,,,blank,1.0
106,sub004,8,109,212,,,,,,,,blank,1.0
107,sub004,8,110,214,A,1,0.38335154904052615,220.00276996998582,221.02247505704872,221.91975554300006,35,stim,0.0
108,sub004,8,111,216,,,,,,,,blank,0.0
109,sub004,8,112,218,,,,,,,,blank,0.0
110,sub004,8,113,220,C,2,0.4499343279749155,226.00281390699092,227.02249233296607,227.91940654197242,36,stim,1.0
111,sub004,8,114,222,,,,,,,,blank,1.0
112,sub004,8,115,224,B,1,0.40003078302834183,230.0028338530101,231.02251500997227,231.91944647801574,37,stim,1.0
113,sub004,8,116,226,,,,,,,,blank,1.0
114,sub004,8,117,228,A,1,0.4334263380151242,234.00279103498906,235.02242015697993,235.91952865105122,38,stim,0.0
115,sub004,8,118,230,,,,,,,,blank,0.0
116,sub004,8,119,232,D,1,0.3834243780001998,238.00282302196138,239.0224923499627,239.91954407503363,39,stim,1.0
117,sub004,8,120,234,,,,,,,,blank,1.0
118,sub004,8,121,236,C,2,0.7832361019682139,242.00301015703008,243.02253626601305,243.9195255660452,40,stim,1.0
119,sub004,8,122,238,,,,,,,,blank,1.0
120,sub004,8,123,240,D,1,0.41667827300261706,246.00294483697508,247.02263035799842,247.9195586440619,41,stim,1.0
121,sub004,8,124,242,,,,,,,,blank,1.0
122,sub004,8,125,244,,,,,,,,blank,1.0
123,sub004,8,126,246,B,2,0.5166754529345781,252.00298998202197,253.02254816400819,253.91959841095377,42,stim,0.0
124,sub004,8,127,248,,,,,,,,blank,0.0
125,sub004,8,128,250,,,,,,,,blank,0.0
126,sub004,8,129,252,A,1,0.43325441307388246,258.0030523489695,259.0227091590641,259.91963145299815,43,stim,0.0
127,sub004,8,130,254,,,,,,,,blank,0.0
128,sub004,8,131,256,B,2,0.4833536990918219,262.00305669696536,263.0230073540006,263.91965874203015,44,stim,0.0
129,sub004,8,132,258,,,,,,,,blank,0.0
130,sub004,8,133,260,C,2,0.4665873810881749,266.0031011579558,267.02276026806794,267.919724227977,45,stim,1.0
131,sub004,8,134,262,,,,,,,,blank,1.0
132,sub004,8,135,264,A,2,0.7833412240725011,270.0030471229693,271.0226820950629,271.9197953110561,46,stim,1.0
133,sub004,8,136,266,,,,,,,,blank,1.0
134,sub004,8,137,268,D,2,0.4500829209573567,274.00309441704303,275.022756300983,275.91982030600775,47,stim,0.0
135,sub004,8,138,270,,,,,,,,blank,0.0
136,sub004,8,139,272,,,,,,,,blank,0.0
137,sub004,8,140,274,,,,,,,,blank,0.0
138,sub004,8,141,276,,,,,,,,blank,0.0
139,sub004,8,142,278,,,,,,,,blank,0.0
