,Sub,Run,TR,Onset,Item,Resp,RT,image_on,button_on,button_off,Trial_ID,stim,switchButtonOrientation
0,sub004,3,3,0,,,,,,,,blank,1.0
1,sub004,3,4,2,,,,,,,,blank,1.0
2,sub004,3,5,4,,,,,,,,blank,1.0
3,sub004,3,6,6,A,1,0.36667739902623,12.004459131974727,13.021202964009717,13.921136370976456,0,stim,0.0
4,sub004,3,7,8,,,,,,,,blank,0.0
5,sub004,3,8,10,C,2,0.4499762710183859,16.004550285986625,17.02137152396608,17.921173171023838,1,stim,1.0
6,sub004,3,9,12,,,,,,,,blank,1.0
7,sub004,3,10,14,,,,,,,,blank,1.0
8,sub004,3,11,16,D,2,0.5178054380230606,22.00580894201994,23.02580401895102,23.923595343949273,2,stim,0.0
9,sub004,3,12,18,,,,,,,,blank,0.0
10,sub004,3,13,20,,,,,,,,blank,0.0
11,sub004,3,14,22,C,1,0.40011977090034634,28.00697593204677,29.026690470054746,29.923706670990214,3,stim,0.0
12,sub004,3,15,24,,,,,,,,blank,0.0
13,sub004,3,16,26,,,,,,,,blank,0.0
14,sub004,3,17,28,A,1,0.3833694230997935,34.00710532395169,35.02666611701716,35.92371747305151,4,stim,0.0
15,sub004,3,18,30,,,,,,,,blank,0.0
16,sub004,3,19,32,B,1,0.549942423007451,38.007140276022255,39.0268129640026,39.923768440959975,5,stim,1.0
17,sub004,3,20,34,,,,,,,,blank,1.0
18,sub004,3,21,36,,,,,,,,blank,1.0
19,sub004,3,22,38,A,2,0.4833470289595425,44.0069917710498,45.025966890971176,45.923736672033556,6,stim,1.0
20,sub004,3,23,40,,,,,,,,blank,1.0
21,sub004,3,24,42,D,1,0.6334043340757489,48.0070261269575,49.02604930405505,49.92377342795953,7,stim,1.0
22,sub004,3,25,44,,,,,,,,blank,1.0
23,sub004,3,26,46,B,2,0.5333923599682748,52.00705203099642,53.02598819101695,53.923787551000714,8,stim,0.0
24,sub004,3,27,48,,,,,,,,blank,0.0
25,sub004,3,28,50,,,,,,,,blank,0.0
26,sub004,3,29,52,,,,,,,,blank,0.0
27,sub004,3,30,54,D,2,0.5166777799604461,60.00716172601096,61.02622819505632,61.92379157501273,9,stim,0.0
28,sub004,3,31,56,,,,,,,,blank,0.0
29,sub004,3,32,58,,,,,,,,blank,0.0
30,sub004,3,33,60,B,2,0.533408256014809,66.00715317903087,67.02609298797324,67.92388950602617,10,stim,0.0
31,sub004,3,34,62,,,,,,,,blank,0.0
32,sub004,3,35,64,C,1,0.38333867909386754,70.00719075894449,71.02631588897202,71.92391223297454,11,stim,0.0
33,sub004,3,36,66,,,,,,,,blank,0.0
34,sub004,3,37,68,A,1,0.40000507794320583,74.00734519900288,75.0269390050089,75.92410043801647,12,stim,0.0
35,sub004,3,38,70,,,,,,,,blank,0.0
36,sub004,3,39,72,,,,,,,,blank,0.0
37,sub004,3,40,74,,,,,,,,blank,0.0
38,sub004,3,41,76,D,1,0.4333152649924159,82.00747526902705,83.02706252899952,83.9240721729584,13,stim,1.0
39,sub004,3,42,78,,,,,,,,blank,1.0
40,sub004,3,43,80,,,,,,,,blank,1.0
41,sub004,3,44,82,,,,,,,,blank,1.0
42,sub004,3,45,84,C,1,0.6334229781059548,90.00743434694596,91.02710742305499,91.92421177902725,14,stim,0.0
43,sub004,3,46,86,,,,,,,,blank,0.0
44,sub004,3,47,88,B,2,0.6667312500067055,94.0074805150507,95.02715231396724,95.92409042199142,15,stim,0.0
45,sub004,3,48,90,,,,,,,,blank,0.0
46,sub004,3,49,92,,,,,,,,blank,0.0
47,sub004,3,50,94,,,,,,,,blank,0.0
48,sub004,3,51,96,A,2,0.5162103200564161,102.00790010998026,103.0263660439523,103.92413927905727,16,stim,1.0
49,sub004,3,52,98,,,,,,,,blank,1.0
50,sub004,3,53,100,,,,,,,,blank,1.0
51,sub004,3,54,102,B,1,0.4167023439658806,108.00750837603118,109.02637820295058,109.92412157903891,17,stim,1.0
52,sub004,3,55,104,,,,,,,,blank,1.0
53,sub004,3,56,106,A,1,0.4499924060655758,112.00755609094631,113.02660045505036,113.92422792303842,18,stim,0.0
54,sub004,3,57,108,,,,,,,,blank,0.0
55,sub004,3,58,110,C,2,0.4500713509041816,116.00750719604548,117.02673406305257,117.92426041897852,19,stim,1.0
56,sub004,3,59,112,,,,,,,,blank,1.0
57,sub004,3,60,114,,,,,,,,blank,1.0
58,sub004,3,61,116,D,1,0.4332794949878007,122.00773326202761,123.02735810203012,123.92433537798934,20,stim,1.0
59,sub004,3,62,118,,,,,,,,blank,1.0
60,sub004,3,63,120,,,,,,,,blank,1.0
61,sub004,3,64,122,,,,,,,,blank,1.0
62,sub004,3,65,124,B,2,0.5000394789967686,130.00769577699248,131.02760401903652,131.92447155399714,21,stim,0.0
63,sub004,3,66,126,,,,,,,,blank,0.0
64,sub004,3,67,128,D,2,0.5500505530508235,134.00775656697806,135.02745538798627,135.92441576905549,22,stim,0.0
65,sub004,3,68,130,,,,,,,,blank,0.0
66,sub004,3,69,132,C,1,0.4331889710156247,138.007824358996,139.02657887001988,139.92431589995977,23,stim,0.0
67,sub004,3,70,134,,,,,,,,blank,0.0
68,sub004,3,71,136,D,2,0.533234030008316,142.0077812479576,143.02661202999298,143.92435654602014,24,stim,0.0
69,sub004,3,72,138,,,,,,,,blank,0.0
70,sub004,3,73,140,,,,,,,,blank,0.0
71,sub004,3,74,142,A,1,0.41665471892338246,148.00779058702756,149.02682042005472,149.92439919000026,25,stim,0.0
72,sub004,3,75,144,,,,,,,,blank,0.0
73,sub004,3,76,146,,,,,,,,blank,0.0
74,sub004,3,77,148,D,2,0.7834296560613438,154.0077673549531,155.02668628003448,155.92446970997844,26,stim,0.0
75,sub004,3,78,150,,,,,,,,blank,0.0
76,sub004,3,79,152,,,,,,,,blank,0.0
77,sub004,3,80,154,C,1,0.48334809904918075,160.00779756798875,161.026932785986,161.92455756594427,27,stim,0.0
78,sub004,3,81,156,,,,,,,,blank,0.0
79,sub004,3,82,158,,,,,,,,blank,0.0
80,sub004,3,83,160,,,,,,,,blank,0.0
81,sub004,3,84,162,B,2,0.5167408270062879,168.00798946002033,169.02759301301558,169.92471547995228,28,stim,0.0
82,sub004,3,85,164,,,,,,,,blank,0.0
83,sub004,3,86,166,,,,,,,,blank,0.0
84,sub004,3,87,168,,,,,,,,blank,0.0
85,sub004,3,88,170,C,2,0.4666891200467944,176.00811024894938,177.02767173503526,177.92469642905053,29,stim,1.0
86,sub004,3,89,172,,,,,,,,blank,1.0
87,sub004,3,90,174,B,1,0.38329715793952346,180.00810725905467,181.027684943052,181.9247452400159,30,stim,1.0
88,sub004,3,91,176,,,,,,,,blank,1.0
89,sub004,3,92,178,,,,,,,,blank,1.0
90,sub004,3,93,180,C,2,0.5167017260100693,186.0081506810384,187.02772622695193,187.92476213700138,31,stim,1.0
91,sub004,3,94,182,,,,,,,,blank,1.0
92,sub004,3,95,184,,,,,,,,blank,1.0
93,sub004,3,96,186,,,,,,,,blank,1.0
94,sub004,3,97,188,A,1,0.41668631590437144,194.0081591240596,195.02780797996093,195.92493015597574,32,stim,0.0
95,sub004,3,98,190,,,,,,,,blank,0.0
96,sub004,3,99,192,,,,,,,,blank,0.0
97,sub004,3,100,194,,,,,,,,blank,0.0
98,sub004,3,101,196,D,1,0.4167460260214284,202.00809134403244,203.0269907580223,203.92478403495625,33,stim,1.0
99,sub004,3,102,198,,,,,,,,blank,1.0
100,sub004,3,103,200,,,,,,,,blank,1.0
101,sub004,3,104,202,A,1,0.40002913295757025,208.00810917303897,209.02731891500298,209.92489330703393,34,stim,0.0
102,sub004,3,105,204,,,,,,,,blank,0.0
103,sub004,3,106,206,B,2,0.6501145520014688,212.0081675039837,213.02794248005375,213.92500091495458,35,stim,0.0
104,sub004,3,107,208,,,,,,,,blank,0.0
105,sub004,3,108,210,D,1,0.46675433206837624,216.00829704594798,217.02797228004783,217.92502903100103,36,stim,1.0
106,sub004,3,109,212,,,,,,,,blank,1.0
107,sub004,3,110,214,C,1,0.4167003089096397,220.00838142004795,221.02794923295733,221.92499538394623,37,stim,0.0
108,sub004,3,111,216,,,,,,,,blank,0.0
109,sub004,3,112,218,,,,,,,,blank,0.0
110,sub004,3,113,220,,,,,,,,blank,0.0
111,sub004,3,114,222,B,1,0.44993805803824216,228.00833524297923,229.02715948305558,229.92493556800764,38,stim,1.0
112,sub004,3,115,224,,,,,,,,blank,1.0
113,sub004,3,116,226,,,,,,,,blank,1.0
114,sub004,3,117,228,C,2,0.4666062060277909,234.00836825894658,235.0274231659714,235.92497486202046,39,stim,1.0
115,sub004,3,118,230,,,,,,,,blank,1.0
116,sub004,3,119,232,,,,,,,,blank,1.0
117,sub004,3,120,234,A,2,0.9167629500152543,240.00833966303617,241.02748650196008,241.92510261305142,40,stim,1.0
118,sub004,3,121,236,,,,,,,,blank,1.0
119,sub004,3,122,238,,,,,,,,blank,1.0
120,sub004,3,123,240,B,1,0.5667018209351227,246.0084055790212,247.02752397605218,247.92776124202646,41,stim,1.0
121,sub004,3,124,242,,,,,,,,blank,1.0
122,sub004,3,125,244,,,,,,,,blank,1.0
123,sub004,3,126,246,D,2,0.5165802469709888,252.00851426902227,253.02755452296697,253.92735130200163,42,stim,0.0
124,sub004,3,127,248,,,,,,,,blank,0.0
125,sub004,3,128,250,A,2,0.48332124610897154,256.0085401949473,257.02760555699933,257.92760797205847,43,stim,1.0
126,sub004,3,129,252,,,,,,,,blank,1.0
127,sub004,3,130,254,B,2,0.5667126119369641,260.00864312204067,261.02833051397465,261.9275463760132,44,stim,0.0
128,sub004,3,131,256,,,,,,,,blank,0.0
129,sub004,3,132,258,,,,,,,,blank,0.0
130,sub004,3,133,260,D,1,0.41675681399647146,266.0085134699475,267.0276256479556,267.92517855600454,45,stim,1.0
131,sub004,3,134,262,,,,,,,,blank,1.0
132,sub004,3,135,264,,,,,,,,blank,1.0
133,sub004,3,136,266,C,2,0.4666835709940642,272.0085690780543,273.02772940602154,273.9252714839531,46,stim,1.0
134,sub004,3,137,268,,,,,,,,blank,1.0
135,sub004,3,138,270,,,,,,,,blank,1.0
136,sub004,3,139,272,A,2,0.5333034580107778,278.00863695598673,279.02758094796445,279.92536135495175,47,stim,1.0
137,sub004,3,140,274,,,,,,,,blank,1.0
138,sub004,3,141,276,,,,,,,,blank,1.0
139,sub004,3,142,278,,,,,,,,blank,1.0
140,sub004,3,143,280,,,,,,,,blank,1.0
