,Sub,Run,TR,Onset,Item,Resp,RT,image_on,button_on,button_off,Trial_ID,stim,switchButtonOrientation
0,sub005,4,3,0,,,,,,,,blank,0.0
1,sub005,4,4,2,,,,,,,,blank,0.0
2,sub005,4,5,4,,,,,,,,blank,0.0
3,sub005,4,6,6,B,1,0.5999892089748755,12.01440161804203,13.031127855007071,13.932327664049808,0,stim,1.0
4,sub005,4,7,8,,,,,,,,blank,1.0
5,sub005,4,8,10,D,2,0.5177020650007762,16.015696635004133,17.019102109014057,17.933481857995503,1,stim,0.0
6,sub005,4,9,12,,,,,,,,blank,0.0
7,sub005,4,10,14,A,1,0.39998554199701175,20.000193794025108,21.019017329032067,21.916786829009652,2,stim,1.0
8,sub005,4,11,16,,,,,,,,blank,1.0
9,sub005,4,12,18,,,,,,,,blank,1.0
10,sub005,4,13,20,C,2,0.7203250210150145,26.000148784019984,27.019136307004374,27.916911325010005,3,stim,1.0
11,sub005,4,14,22,,,,,,,,blank,1.0
12,sub005,4,15,24,,,,,,,,blank,1.0
13,sub005,4,16,26,A,2,0.5166169760050252,32.000242203997914,33.01935053401394,33.91696357302135,4,stim,1.0
14,sub005,4,17,28,,,,,,,,blank,1.0
15,sub005,4,18,30,D,2,0.41664129204582423,36.000252783996984,37.01934058702318,37.916957757028285,5,stim,0.0
16,sub005,4,19,32,,,,,,,,blank,0.0
17,sub005,4,20,34,B,2,0.5167476610513404,40.00025751499925,41.019245201023296,41.917001873021945,6,stim,0.0
18,sub005,4,21,36,,,,,,,,blank,0.0
19,sub005,4,22,38,,,,,,,,blank,0.0
20,sub005,4,23,40,A,2,0.5833504450274631,46.00034188001882,47.019376042997465,47.91699471801985,7,stim,1.0
21,sub005,4,24,42,,,,,,,,blank,1.0
22,sub005,4,25,44,C,2,0.68398397997953,50.00037283304846,51.01919095800258,51.91700476803817,8,stim,1.0
23,sub005,4,26,46,,,,,,,,blank,1.0
24,sub005,4,27,48,,,,,,,,blank,1.0
25,sub005,4,28,50,,,,,,,,blank,1.0
26,sub005,4,29,52,B,1,0.6167054920224473,58.000418053008616,59.01926159003051,59.91706462303409,9,stim,1.0
27,sub005,4,30,54,,,,,,,,blank,1.0
28,sub005,4,31,56,,,,,,,,blank,1.0
29,sub005,4,32,58,C,1,0.483320212981198,64.00048785004765,65.01936044800095,65.91716873605037,10,stim,0.0
30,sub005,4,33,60,,,,,,,,blank,0.0
31,sub005,4,34,62,D,2,0.5165714340400882,68.00053076300537,69.01935155905085,69.91718696500175,11,stim,0.0
32,sub005,4,35,64,,,,,,,,blank,0.0
33,sub005,4,36,66,,,,,,,,blank,0.0
34,sub005,4,37,68,,,,,,,,blank,0.0
35,sub005,4,38,70,C,1,0.5166943789809011,76.00065563403768,77.02017229201738,77.91737070202362,12,stim,0.0
36,sub005,4,39,72,,,,,,,,blank,0.0
37,sub005,4,40,74,,,,,,,,blank,0.0
38,sub005,4,41,76,A,1,0.48327942501055077,82.00070360401878,83.02022166602546,83.91742078500101,13,stim,0.0
39,sub005,4,42,78,,,,,,,,blank,0.0
40,sub005,4,43,80,,,,,,,,blank,0.0
41,sub005,4,44,82,B,1,0.46663626900408417,88.00071848201333,89.0203760790173,89.91738581302343,14,stim,1.0
42,sub005,4,45,84,,,,,,,,blank,1.0
43,sub005,4,46,86,D,1,0.41667873098049313,92.00070464902092,93.02033144404413,93.9174386280356,15,stim,1.0
44,sub005,4,47,88,,,,,,,,blank,1.0
45,sub005,4,48,90,B,2,0.41666437697131187,96.00074071803829,97.02051134902285,97.91747387102805,16,stim,0.0
46,sub005,4,49,92,,,,,,,,blank,0.0
47,sub005,4,50,94,,,,,,,,blank,0.0
48,sub005,4,51,96,,,,,,,,blank,0.0
49,sub005,4,52,98,D,2,0.7499637859873474,104.0008377500344,105.02034476405242,105.91742353903828,17,stim,0.0
50,sub005,4,53,100,,,,,,,,blank,0.0
51,sub005,4,54,102,,,,,,,,blank,0.0
52,sub005,4,55,104,A,1,0.48336227203253657,110.00075391901191,111.01980529399589,111.9174042600207,18,stim,0.0
53,sub005,4,56,106,,,,,,,,blank,0.0
54,sub005,4,57,108,,,,,,,,blank,0.0
55,sub005,4,58,110,D,1,0.43344538199016824,116.0007288440247,117.01969465304865,117.91750147502171,19,stim,1.0
56,sub005,4,59,112,,,,,,,,blank,1.0
57,sub005,4,60,114,,,,,,,,blank,1.0
58,sub005,4,61,116,B,1,0.4667310230433941,122.00089700100943,123.0205115750432,123.91766128799645,20,stim,1.0
59,sub005,4,62,118,,,,,,,,blank,1.0
60,sub005,4,63,120,,,,,,,,blank,1.0
61,sub005,4,64,122,C,1,0.48336929897777736,128.00091705902014,129.02076841105008,129.91770084103337,21,stim,0.0
62,sub005,4,65,124,,,,,,,,blank,0.0
63,sub005,4,66,126,,,,,,,,blank,0.0
64,sub005,4,67,128,A,1,0.5000115670263767,134.00095735001378,135.020636389032,135.91773871402256,22,stim,0.0
65,sub005,4,68,130,,,,,,,,blank,0.0
66,sub005,4,69,132,,,,,,,,blank,0.0
67,sub005,4,70,134,,,,,,,,blank,0.0
68,sub005,4,71,136,C,2,0.6167063909815624,142.00107387104072,143.02073344000382,143.91760157200042,23,stim,1.0
69,sub005,4,72,138,,,,,,,,blank,1.0
70,sub005,4,73,140,D,2,0.7833054860238917,146.00104631501017,147.02002323803026,147.91762548900442,24,stim,0.0
71,sub005,4,74,142,,,,,,,,blank,0.0
72,sub005,4,75,144,,,,,,,,blank,0.0
73,sub005,4,76,146,,,,,,,,blank,0.0
74,sub005,4,77,148,A,1,0.48335740697802976,154.0009756180225,155.0201143050217,155.91774756804807,25,stim,0.0
75,sub005,4,78,150,,,,,,,,blank,0.0
76,sub005,4,79,152,,,,,,,,blank,0.0
77,sub005,4,80,154,D,2,0.416660945978947,160.00110070605297,161.0199242310482,161.9177240410354,26,stim,0.0
78,sub005,4,81,156,,,,,,,,blank,0.0
79,sub005,4,82,158,,,,,,,,blank,0.0
80,sub005,4,83,160,,,,,,,,blank,0.0
81,sub005,4,84,162,A,1,0.416684209019877,168.00118249701336,169.02101443504216,169.91795042500598,27,stim,0.0
82,sub005,4,85,164,,,,,,,,blank,0.0
83,sub005,4,86,166,C,2,0.7332715830416419,172.0012945299968,173.0207730740076,173.91789980902104,28,stim,1.0
84,sub005,4,87,168,,,,,,,,blank,1.0
85,sub005,4,88,170,,,,,,,,blank,1.0
86,sub005,4,89,172,,,,,,,,blank,1.0
87,sub005,4,90,174,B,1,0.4667559200315736,180.00125456001842,181.02086958102882,181.91803086100845,29,stim,1.0
88,sub005,4,91,176,,,,,,,,blank,1.0
89,sub005,4,92,178,C,2,0.34995331399841234,184.0012299590162,185.02011717105052,185.9178500350099,30,stim,1.0
90,sub005,4,93,180,,,,,,,,blank,1.0
91,sub005,4,94,182,B,2,0.6500022109830752,188.00126565201208,189.0200800410239,189.9178761690273,31,stim,0.0
92,sub005,4,95,184,,,,,,,,blank,0.0
93,sub005,4,96,186,,,,,,,,blank,0.0
94,sub005,4,97,188,,,,,,,,blank,0.0
95,sub005,4,98,190,A,2,0.533296819019597,196.0013106620172,197.02019151701825,197.91800480999518,32,stim,1.0
96,sub005,4,99,192,,,,,,,,blank,1.0
97,sub005,4,100,194,,,,,,,,blank,1.0
98,sub005,4,101,196,C,1,0.8000711369677447,202.0012759800302,203.02021427999716,203.91805345204193,33,stim,0.0
99,sub005,4,102,198,,,,,,,,blank,0.0
100,sub005,4,103,200,B,1,0.9524412039900199,206.00130599504337,207.02042625902686,207.91804940404836,34,stim,1.0
101,sub005,4,104,202,,,,,,,,blank,1.0
102,sub005,4,105,204,D,2,0.43331751198275015,210.0014664020273,211.0212267980096,211.91819031501655,35,stim,0.0
103,sub005,4,106,206,,,,,,,,blank,0.0
104,sub005,4,107,208,B,,,214.0015452860389,215.02102103002835,215.91817174101016,36,stim,0.0
105,sub005,4,108,210,,,,,,,,blank,0.0
106,sub005,4,109,212,C,1,0.5166735160164535,218.00150683399988,219.02131220605224,219.91823179699713,37,stim,0.0
107,sub005,4,110,214,,,,,,,,blank,0.0
108,sub005,4,111,216,,,,,,,,blank,0.0
109,sub005,4,112,218,,,,,,,,blank,0.0
110,sub005,4,113,220,D,1,0.43343164899852127,226.0015998990275,227.02127207402373,227.91824215301313,38,stim,1.0
111,sub005,4,114,222,,,,,,,,blank,1.0
112,sub005,4,115,224,C,2,0.5500730700441636,230.00158014299814,231.02114805503516,231.91833241301356,39,stim,1.0
113,sub005,4,116,226,,,,,,,,blank,1.0
114,sub005,4,117,228,A,2,0.4499195050448179,234.0016784920008,235.0211711380398,235.91826835204847,40,stim,1.0
115,sub005,4,118,230,,,,,,,,blank,1.0
116,sub005,4,119,232,,,,,,,,blank,1.0
117,sub005,4,120,234,B,1,0.4999982850276865,240.0015131040127,241.02064878301462,241.91827304899925,41,stim,1.0
118,sub005,4,121,236,,,,,,,,blank,1.0
119,sub005,4,122,238,,,,,,,,blank,1.0
120,sub005,4,123,240,A,1,0.4165743949706666,246.00164089503232,247.02051722601755,247.9183060050127,42,stim,0.0
121,sub005,4,124,242,,,,,,,,blank,0.0
122,sub005,4,125,244,,,,,,,,blank,0.0
123,sub005,4,126,246,B,2,0.44993510900530964,252.00167629501084,253.02067423099652,253.9183286090265,43,stim,0.0
124,sub005,4,127,248,,,,,,,,blank,0.0
125,sub005,4,128,250,,,,,,,,blank,0.0
126,sub005,4,129,252,,,,,,,,blank,0.0
127,sub005,4,130,254,D,1,0.43328436597948894,260.00181899004383,261.0214811900514,261.9184485870064,44,stim,1.0
128,sub005,4,131,256,,,,,,,,blank,1.0
129,sub005,4,132,258,C,1,0.6333190819714218,264.00183806504356,265.02137133601354,265.9185042240424,45,stim,0.0
130,sub005,4,133,260,,,,,,,,blank,0.0
131,sub005,4,134,262,,,,,,,,blank,0.0
132,sub005,4,135,264,A,1,0.43334716197568923,270.00187631102744,271.02139357704436,271.9185327870073,46,stim,0.0
133,sub005,4,136,266,,,,,,,,blank,0.0
134,sub005,4,137,268,,,,,,,,blank,0.0
135,sub005,4,138,270,D,1,0.900030869001057,276.0018975370331,277.02155805705115,277.9215180470492,47,stim,1.0
136,sub005,4,139,272,,,,,,,,blank,1.0
137,sub005,4,140,274,,,,,,,,blank,1.0
138,sub005,4,141,276,,,,,,,,blank,1.0
139,sub005,4,142,278,,,,,,,,blank,1.0
140,sub005,4,143,280,,,,,,,,blank,1.0
