,Sub,Run,TR,Onset,Item,Resp,RT,image_on,button_on,button_off,Trial_ID,stim,switchButtonOrientation
0,sub005,8,3,0,,,,,,,,blank,0.0
1,sub005,8,4,2,,,,,,,,blank,0.0
2,sub005,8,5,4,,,,,,,,blank,0.0
3,sub005,8,6,6,D,2,0.5333385789999738,12.01230935996864,13.029188933956902,13.929051406972576,0,stim,0.0
4,sub005,8,7,8,,,,,,,,blank,0.0
5,sub005,8,8,10,,,,,,,,blank,0.0
6,sub005,8,9,12,C,2,0.7000274989986792,18.013645761995576,19.031570655992255,19.933659525006078,1,stim,1.0
7,sub005,8,10,14,,,,,,,,blank,1.0
8,sub005,8,11,16,D,1,0.48332839499926195,22.014737815014087,23.03388168796664,23.93388861499261,2,stim,1.0
9,sub005,8,12,18,,,,,,,,blank,1.0
10,sub005,8,13,20,B,1,0.6666661350172944,26.01476496795658,27.033841825963464,27.93391928100027,3,stim,1.0
11,sub005,8,14,22,,,,,,,,blank,1.0
12,sub005,8,15,24,C,2,0.7166147730313241,30.01492528198287,31.03455264796503,31.933958679961506,4,stim,1.0
13,sub005,8,16,26,,,,,,,,blank,1.0
14,sub005,8,17,28,A,2,0.918948468985036,34.01483382697916,35.033890942984726,35.93378229596419,5,stim,1.0
15,sub005,8,18,30,,,,,,,,blank,1.0
16,sub005,8,19,32,,,,,,,,blank,1.0
17,sub005,8,20,34,B,2,0.6500112219946459,40.01492488000076,41.033780319965445,41.9337845830014,6,stim,0.0
18,sub005,8,21,36,,,,,,,,blank,0.0
19,sub005,8,22,38,,,,,,,,blank,0.0
20,sub005,8,23,40,A,2,0.9167088440153748,46.01495674595935,47.03382018796401,47.93166558997473,7,stim,1.0
21,sub005,8,24,42,,,,,,,,blank,1.0
22,sub005,8,25,44,,,,,,,,blank,1.0
23,sub005,8,26,46,B,2,0.683340092014987,52.01501560996985,53.03387473401381,53.933872068009805,8,stim,0.0
24,sub005,8,27,48,,,,,,,,blank,0.0
25,sub005,8,28,50,,,,,,,,blank,0.0
26,sub005,8,29,52,D,2,0.7167556759668514,58.01498368999455,59.034181400958914,59.934161865967326,9,stim,0.0
27,sub005,8,30,54,,,,,,,,blank,0.0
28,sub005,8,31,56,A,2,0.5667194579727948,62.01504956098506,63.03421263495693,63.93399681401206,10,stim,1.0
29,sub005,8,32,58,,,,,,,,blank,1.0
30,sub005,8,33,60,C,1,0.8167806210112758,66.0150511660031,67.03400336200139,67.93401806795737,11,stim,0.0
31,sub005,8,34,62,,,,,,,,blank,0.0
32,sub005,8,35,64,,,,,,,,blank,0.0
33,sub005,8,36,66,,,,,,,,blank,0.0
34,sub005,8,37,68,D,,,74.01523437799187,75.03501939598937,75.93485943000996,12,stim,0.0
35,sub005,8,38,70,,1,1.1665890839649364,,,,,blank,0.0
36,sub005,8,39,72,B,1,0.5165757180075161,78.01524903497193,79.03435107198311,79.93424934300128,13,stim,1.0
37,sub005,8,40,74,,,,,,,,blank,1.0
38,sub005,8,41,76,,,,,,,,blank,1.0
39,sub005,8,42,78,,,,,,,,blank,1.0
40,sub005,8,43,80,A,2,0.5666690609650686,86.01528335700277,87.03411538701039,87.93413074500859,14,stim,1.0
41,sub005,8,44,82,,,,,,,,blank,1.0
42,sub005,8,45,84,,,,,,,,blank,1.0
43,sub005,8,46,86,C,1,0.7000923359883018,92.0152410090086,93.03420814196579,93.93421360396314,15,stim,0.0
44,sub005,8,47,88,,,,,,,,blank,0.0
45,sub005,8,48,90,,,,,,,,blank,0.0
46,sub005,8,49,92,D,1,0.9355037069763057,98.01535172900185,99.03420854598517,99.9342201440013,16,stim,1.0
47,sub005,8,50,94,,,,,,,,blank,1.0
48,sub005,8,51,96,B,2,0.8332941469852813,102.01536987198051,103.03442594100488,103.93443016399397,17,stim,0.0
49,sub005,8,52,98,,,,,,,,blank,0.0
50,sub005,8,53,100,,,,,,,,blank,0.0
51,sub005,8,54,102,,,,,,,,blank,0.0
52,sub005,8,55,104,D,1,0.6666776089696214,110.01545865699882,111.03429261397105,111.93429485999513,18,stim,1.0
53,sub005,8,56,106,,,,,,,,blank,1.0
54,sub005,8,57,108,C,2,0.8332619779976085,114.01548476400785,115.03449314099271,115.93432382598985,19,stim,1.0
55,sub005,8,58,110,,,,,,,,blank,1.0
56,sub005,8,59,112,,,,,,,,blank,1.0
57,sub005,8,60,114,,,,,,,,blank,1.0
58,sub005,8,61,116,A,2,0.8333056909614243,122.01564499200322,123.0351604159805,123.93523102300242,20,stim,1.0
59,sub005,8,62,118,,,,,,,,blank,1.0
60,sub005,8,63,120,,,,,,,,blank,1.0
61,sub005,8,64,122,B,1,0.583340268000029,128.01556754199555,129.03447330900235,129.93447201797972,21,stim,1.0
62,sub005,8,65,124,,,,,,,,blank,1.0
63,sub005,8,66,126,C,,,132.01561046601273,133.03467132797232,133.93449561099987,22,stim,1.0
64,sub005,8,67,128,,2,1.149954886001069,,,,,blank,1.0
65,sub005,8,68,130,,,,,,,,blank,1.0
66,sub005,8,69,132,A,,,138.01565636898158,139.03449446999002,139.93467289296677,23,stim,0.0
67,sub005,8,70,134,,1,1.3333272350137122,,,,,blank,0.0
68,sub005,8,71,136,C,,,142.01567205798347,143.0345552189974,143.93451980897225,24,stim,1.0
69,sub005,8,72,138,,2,1.2832831059931777,,,,,blank,1.0
70,sub005,8,73,140,,,,,,,,blank,1.0
71,sub005,8,74,142,B,2,0.7833224129863083,148.01566724601435,149.0347914219601,149.93460856599268,25,stim,0.0
72,sub005,8,75,144,,,,,,,,blank,0.0
73,sub005,8,76,146,,,,,,,,blank,0.0
74,sub005,8,77,148,A,2,0.6333300620317459,154.01576807396486,155.03460255399114,155.9346723270137,26,stim,1.0
75,sub005,8,78,150,,,,,,,,blank,1.0
76,sub005,8,79,152,,,,,,,,blank,1.0
77,sub005,8,80,154,B,2,0.8500003200024366,160.01579545997083,161.03485351096606,161.9346564990119,27,stim,0.0
78,sub005,8,81,156,,,,,,,,blank,0.0
79,sub005,8,82,158,,,,,,,,blank,0.0
80,sub005,8,83,160,,,,,,,,blank,0.0
81,sub005,8,84,162,D,1,0.5833397009992041,168.01597835100256,169.03562427096767,169.935028561973,28,stim,1.0
82,sub005,8,85,164,,,,,,,,blank,1.0
83,sub005,8,86,166,,,,,,,,blank,1.0
84,sub005,8,87,168,B,1,0.4834198639728129,174.0160036989837,175.03546169697074,175.93474090000382,29,stim,1.0
85,sub005,8,88,170,,,,,,,,blank,1.0
86,sub005,8,89,172,,,,,,,,blank,1.0
87,sub005,8,90,174,A,1,0.5168221019557677,180.0158628830104,181.03487752197543,181.9350335529889,30,stim,0.0
88,sub005,8,91,176,,,,,,,,blank,0.0
89,sub005,8,92,178,,,,,,,,blank,0.0
90,sub005,8,93,180,,,,,,,,blank,0.0
91,sub005,8,94,182,C,2,0.666694974002894,188.0159261439694,189.03510942700086,189.93486495199613,31,stim,1.0
92,sub005,8,95,184,,,,,,,,blank,1.0
93,sub005,8,96,186,D,1,0.5167401669896208,192.01595661201281,193.03504684299696,193.9346662889584,32,stim,1.0
94,sub005,8,97,188,,,,,,,,blank,1.0
95,sub005,8,98,190,,,,,,,,blank,1.0
96,sub005,8,99,192,C,2,0.7833101089927368,198.01605467899935,199.03489654295845,199.93511590297567,33,stim,1.0
97,sub005,8,100,194,,,,,,,,blank,1.0
98,sub005,8,101,196,,,,,,,,blank,1.0
99,sub005,8,102,198,,,,,,,,blank,1.0
100,sub005,8,103,200,D,,,205.9994348239852,207.01611909997882,207.91607742698397,34,stim,1.0
101,sub005,8,104,202,,1,1.6167444059974514,,,,,blank,1.0
102,sub005,8,105,204,,,,,,,,blank,1.0
103,sub005,8,106,206,A,2,0.49998169898753986,211.99945116200252,213.01617530698422,213.91618793300586,35,stim,1.0
104,sub005,8,107,208,,,,,,,,blank,1.0
105,sub005,8,108,210,B,1,0.46671231801155955,215.99949642596766,217.0162145390059,217.9162178739789,36,stim,1.0
106,sub005,8,109,212,,,,,,,,blank,1.0
107,sub005,8,110,214,D,2,0.7332885189680383,219.99966346099973,221.0163550740108,221.916274210962,37,stim,0.0
108,sub005,8,111,216,,,,,,,,blank,0.0
109,sub005,8,112,218,A,1,0.5332555510103703,223.9995874959859,225.01624457800062,225.91618903097697,38,stim,0.0
110,sub005,8,113,220,,,,,,,,blank,0.0
111,sub005,8,114,222,,,,,,,,blank,0.0
112,sub005,8,115,224,,,,,,,,blank,0.0
113,sub005,8,116,226,D,2,0.616606495983433,231.99964846600778,233.0163243470015,233.91626596997958,39,stim,0.0
114,sub005,8,117,228,,,,,,,,blank,0.0
115,sub005,8,118,230,B,,,235.99969951697858,237.01634408999234,237.9162785699591,40,stim,0.0
116,sub005,8,119,232,,,,,,,,blank,0.0
117,sub005,8,120,234,C,1,0.5000187570112757,240.0163568239659,241.03539676999208,241.93541588797234,41,stim,0.0
118,sub005,8,121,236,,,,,,,,blank,0.0
119,sub005,8,122,238,,,,,,,,blank,0.0
120,sub005,8,123,240,,,,,,,,blank,0.0
121,sub005,8,124,242,A,2,0.7667153810034506,248.01638629595982,249.03529767895816,249.93566029600333,42,stim,1.0
122,sub005,8,125,244,,,,,,,,blank,1.0
123,sub005,8,126,246,,,,,,,,blank,1.0
124,sub005,8,127,248,B,1,0.4666093080304563,254.01644582598237,255.03548890497768,255.93509566801367,43,stim,1.0
125,sub005,8,128,250,,,,,,,,blank,1.0
126,sub005,8,129,252,C,,,258.01646971696755,259.0354933369672,259.9350891080103,44,stim,1.0
127,sub005,8,130,254,,,,,,,,blank,1.0
128,sub005,8,131,256,A,,,262.0165039419662,263.03534536401276,263.9355606290046,45,stim,0.0
129,sub005,8,132,258,,1,1.0188830750412308,,,,,blank,0.0
130,sub005,8,133,260,,,,,,,,blank,0.0
131,sub005,8,134,262,D,1,0.8499513569986448,268.0166697019595,269.03630695695756,269.9356846449664,46,stim,1.0
132,sub005,8,135,264,,,,,,,,blank,1.0
133,sub005,8,136,266,,,,,,,,blank,1.0
134,sub005,8,137,268,C,,,274.01659786497476,275.0354906959692,275.93590685201343,47,stim,0.0
135,sub005,8,138,270,,1,1.2333883949904703,,,,,blank,0.0
136,sub005,8,139,272,,,,,,,,blank,0.0
137,sub005,8,140,274,,,,,,,,blank,0.0
138,sub005,8,141,276,,,,,,,,blank,0.0
139,sub005,8,142,278,,,,,,,,blank,0.0
