,Sub,Run,TR,Onset,Item,Resp,RT,image_on,button_on,button_off,Trial_ID,stim,switchButtonOrientation
0,sub004,8,3,0,,,,,,,,blank,0.0
1,sub004,8,4,2,,,,,,,,blank,0.0
2,sub004,8,5,4,,,,,,,,blank,0.0
3,sub004,8,6,6,C,1,0.4666874480317347,12.005147589021362,13.022037271002773,13.921905002032872,0,stim,0.0
4,sub004,8,7,8,,,,,,,,blank,0.0
5,sub004,8,8,10,A,2,0.4333448850084096,16.00518112501595,17.021941954037175,17.92194286303129,1,stim,1.0
6,sub004,8,9,12,,,,,,,,blank,1.0
7,sub004,8,10,14,,,,,,,,blank,1.0
8,sub004,8,11,16,D,2,0.6177577950293198,22.006567878008354,23.026625073049217,23.909817603998818,2,stim,0.0
9,sub004,8,12,18,,,,,,,,blank,0.0
10,sub004,8,13,20,,,,,,,,blank,0.0
11,sub004,8,14,22,,,,,,,,blank,0.0
12,sub004,8,15,24,A,2,0.48326546896714717,30.00770569703309,31.026525914028753,31.926337430020794,3,stim,1.0
13,sub004,8,16,26,,,,,,,,blank,1.0
14,sub004,8,17,28,,,,,,,,blank,1.0
15,sub004,8,18,30,,,,,,,,blank,1.0
16,sub004,8,19,32,B,1,0.43328883103094995,38.00779974501347,39.02738817804493,39.9269261030131,4,stim,1.0
17,sub004,8,20,34,,,,,,,,blank,1.0
18,sub004,8,21,36,C,2,0.4167520559858531,42.00770791602554,43.02683020103723,43.92638128600083,5,stim,1.0
19,sub004,8,22,38,,,,,,,,blank,1.0
20,sub004,8,23,40,B,2,0.45005352701991796,46.00774442299735,47.026653167034965,47.92641617701156,6,stim,0.0
21,sub004,8,24,42,,,,,,,,blank,0.0
22,sub004,8,25,44,,,,,,,,blank,0.0
23,sub004,8,26,46,,,,,,,,blank,0.0
24,sub004,8,27,48,D,1,0.5334029849618673,54.007795678044204,55.0267155750189,55.92649291100679,7,stim,1.0
25,sub004,8,28,50,,,,,,,,blank,1.0
26,sub004,8,29,52,B,1,0.5667385290144011,58.007828509027604,59.026965744036715,59.92650692304596,8,stim,1.0
27,sub004,8,30,54,,,,,,,,blank,1.0
28,sub004,8,31,56,C,1,0.5333879539975896,62.00788089004345,63.02681209804723,63.92648533103056,9,stim,0.0
29,sub004,8,32,58,,,,,,,,blank,0.0
30,sub004,8,33,60,D,2,0.4999457339872606,66.00793043302838,67.02703013404971,67.92653809604235,10,stim,0.0
31,sub004,8,34,62,,,,,,,,blank,0.0
32,sub004,8,35,64,A,1,0.4499897040077485,70.00797676801449,71.02706673700595,71.92711698199855,11,stim,0.0
33,sub004,8,36,66,,,,,,,,blank,0.0
34,sub004,8,37,68,,,,,,,,blank,0.0
35,sub004,8,38,70,,,,,,,,blank,0.0
36,sub004,8,39,72,C,2,0.4166625760262832,78.00796540500596,79.02690385200549,79.92719390400453,12,stim,1.0
37,sub004,8,40,74,,,,,,,,blank,1.0
38,sub004,8,41,76,,,,,,,,blank,1.0
39,sub004,8,42,78,B,1,0.4832775910035707,84.00816641602432,85.02768057503272,85.92724417103454,13,stim,1.0
40,sub004,8,43,80,,,,,,,,blank,1.0
41,sub004,8,44,82,C,2,0.499900080030784,88.00812659400981,89.02792643901194,89.92672498704633,14,stim,1.0
42,sub004,8,45,84,,,,,,,,blank,1.0
43,sub004,8,46,86,B,1,0.4833193540107459,92.00811851699837,93.02722743502818,93.92667979805265,15,stim,1.0
44,sub004,8,47,88,,,,,,,,blank,1.0
45,sub004,8,48,90,,,,,,,,blank,1.0
46,sub004,8,49,92,D,2,0.4667699899873696,98.00806955603184,99.02703825599747,99.92731663800078,16,stim,0.0
47,sub004,8,50,94,,,,,,,,blank,0.0
48,sub004,8,51,96,,,,,,,,blank,0.0
49,sub004,8,52,98,A,2,0.49996673298301175,104.0082281990326,105.02701774303569,105.9267699070042,17,stim,1.0
50,sub004,8,53,100,,,,,,,,blank,1.0
51,sub004,8,54,102,,,,,,,,blank,1.0
52,sub004,8,55,104,C,2,0.550061698013451,110.00820449303137,111.02710492204642,111.92686807102291,18,stim,1.0
53,sub004,8,56,106,,,,,,,,blank,1.0
54,sub004,8,57,108,,,,,,,,blank,1.0
55,sub004,8,58,110,D,1,0.5000213770545088,116.00826989900088,117.02710233803373,117.92691282404121,19,stim,1.0
56,sub004,8,59,112,,,,,,,,blank,1.0
57,sub004,8,60,114,A,,,120.00830040604342,121.0274094720371,121.926874574041,20,stim,0.0
58,sub004,8,61,116,,,,,,,,blank,0.0
59,sub004,8,62,118,,,,,,,,blank,0.0
60,sub004,8,63,120,,,,,,,,blank,0.0
61,sub004,8,64,122,B,2,0.5332608390017413,128.00835673400434,129.0271685900516,129.9269250840298,21,stim,0.0
62,sub004,8,65,124,,,,,,,,blank,0.0
63,sub004,8,66,126,,,,,,,,blank,0.0
64,sub004,8,67,128,D,2,0.43327388097532094,134.0084340100293,135.02725454804022,135.92703004705254,22,stim,0.0
65,sub004,8,68,130,,,,,,,,blank,0.0
66,sub004,8,69,132,,,,,,,,blank,0.0
67,sub004,8,70,134,,,,,,,,blank,0.0
68,sub004,8,71,136,A,2,0.41662961401743814,142.00841317902086,143.02727752603823,143.92770314402878,23,stim,1.0
69,sub004,8,72,138,,,,,,,,blank,1.0
70,sub004,8,73,140,,,,,,,,blank,1.0
71,sub004,8,74,142,D,2,0.4166571209789254,148.00848643505014,149.02750959905097,149.92707830900326,24,stim,0.0
72,sub004,8,75,144,,,,,,,,blank,0.0
73,sub004,8,76,146,A,2,0.43326868099393323,152.00852206803393,153.02735258103348,153.92770822701277,25,stim,1.0
74,sub004,8,77,148,,,,,,,,blank,1.0
75,sub004,8,78,150,C,1,0.4833249970106408,156.0085504730232,157.02736556599848,157.9271358580445,26,stim,0.0
76,sub004,8,79,152,,,,,,,,blank,0.0
77,sub004,8,80,154,,,,,,,,blank,0.0
78,sub004,8,81,156,A,1,0.41659641900332645,162.00860635604477,163.02763505704934,163.92778218403691,27,stim,0.0
79,sub004,8,82,158,,,,,,,,blank,0.0
80,sub004,8,83,160,,,,,,,,blank,0.0
81,sub004,8,84,162,B,1,0.5167303909547627,168.00854140304727,169.02748142700875,169.92723918304546,28,stim,1.0
82,sub004,8,85,164,,,,,,,,blank,1.0
83,sub004,8,86,166,,,,,,,,blank,1.0
84,sub004,8,87,168,,,,,,,,blank,1.0
85,sub004,8,88,170,A,2,0.43326661601895466,176.00866107200272,177.02755936601898,177.92725609900663,29,stim,1.0
86,sub004,8,89,172,,,,,,,,blank,1.0
87,sub004,8,90,174,B,2,0.46669415896758437,180.00868338003056,181.02854242705507,181.92724083003122,30,stim,0.0
88,sub004,8,91,176,,,,,,,,blank,0.0
89,sub004,8,92,178,,,,,,,,blank,0.0
90,sub004,8,93,180,D,1,0.4999777390039526,186.00868923502276,187.0278081620345,187.92736706900178,31,stim,1.0
91,sub004,8,94,182,,,,,,,,blank,1.0
92,sub004,8,95,184,,,,,,,,blank,1.0
93,sub004,8,96,186,C,2,0.6333458530134521,192.00875091401394,193.02759325900115,193.92739839904243,32,stim,1.0
94,sub004,8,97,188,,,,,,,,blank,1.0
95,sub004,8,98,190,,,,,,,,blank,1.0
96,sub004,8,99,192,B,1,0.44994069798849523,198.00880768103525,199.02784578304272,199.92802181700245,33,stim,1.0
97,sub004,8,100,194,,,,,,,,blank,1.0
98,sub004,8,101,196,,,,,,,,blank,1.0
99,sub004,8,102,198,,,,,,,,blank,1.0
100,sub004,8,103,200,C,2,0.44997129001421854,206.00881975202356,207.02767505001975,207.928075267002,34,stim,1.0
101,sub004,8,104,202,,,,,,,,blank,1.0
102,sub004,8,105,204,D,1,0.6499539990327321,210.0088578480063,211.02771880704677,211.9274343830184,35,stim,1.0
103,sub004,8,106,206,,,,,,,,blank,1.0
104,sub004,8,107,208,,,,,,,,blank,1.0
105,sub004,8,108,210,C,2,0.4500077309785411,216.00890442501986,217.02778987999773,217.92813467100495,36,stim,1.0
106,sub004,8,109,212,,,,,,,,blank,1.0
107,sub004,8,110,214,,,,,,,,blank,1.0
108,sub004,8,111,216,B,2,0.5000297729857266,222.00894451502245,223.02783044200623,223.92812983103795,37,stim,0.0
109,sub004,8,112,218,,,,,,,,blank,0.0
110,sub004,8,113,220,,,,,,,,blank,0.0
111,sub004,8,114,222,A,2,0.5332753320108168,228.00909296103055,229.02870495599927,229.92925110901706,38,stim,1.0
112,sub004,8,115,224,,,,,,,,blank,1.0
113,sub004,8,116,226,,,,,,,,blank,1.0
114,sub004,8,117,228,,,,,,,,blank,1.0
115,sub004,8,118,230,B,2,0.4500084100291133,236.0090528440196,237.02806077100104,237.92833152302774,39,stim,0.0
116,sub004,8,119,232,,,,,,,,blank,0.0
117,sub004,8,120,234,D,1,0.4667313909740187,240.0090004040394,241.0279293950298,241.927685061004,40,stim,1.0
118,sub004,8,121,236,,,,,,,,blank,1.0
119,sub004,8,122,238,,,,,,,,blank,1.0
120,sub004,8,123,240,A,1,0.48328561399830505,246.00909680401674,247.02791985601652,247.92836901103146,41,stim,0.0
121,sub004,8,124,242,,,,,,,,blank,0.0
122,sub004,8,125,244,C,2,0.7000768840080127,250.00906073802616,251.0282084060018,251.92775441001868,42,stim,1.0
123,sub004,8,126,246,,,,,,,,blank,1.0
124,sub004,8,127,248,,,,,,,,blank,1.0
125,sub004,8,128,250,,,,,,,,blank,1.0
126,sub004,8,129,252,A,2,0.4833692060201429,258.0091484320001,259.0280725710327,259.92849712399766,43,stim,1.0
127,sub004,8,130,254,,,,,,,,blank,1.0
128,sub004,8,131,256,,,,,,,,blank,1.0
129,sub004,8,132,258,B,2,0.4499115200014785,264.00923459103797,265.02804747002665,265.92845603101887,44,stim,0.0
130,sub004,8,133,260,,,,,,,,blank,0.0
131,sub004,8,134,262,,,,,,,,blank,0.0
132,sub004,8,135,264,D,1,0.4500576970167458,270.009213317011,271.02831831900403,271.92846416903194,45,stim,1.0
133,sub004,8,136,266,,,,,,,,blank,1.0
134,sub004,8,137,268,C,2,0.49993765697581694,274.0093110470334,275.02914810104994,275.92848976905225,46,stim,1.0
135,sub004,8,138,270,,,,,,,,blank,1.0
136,sub004,8,139,272,D,2,0.44999024603748694,278.0093148360029,279.0284376560012,279.92850807803916,47,stim,0.0
137,sub004,8,140,274,,,,,,,,blank,0.0
138,sub004,8,141,276,,,,,,,,blank,0.0
139,sub004,8,142,278,,,,,,,,blank,0.0
140,sub004,8,143,280,,,,,,,,blank,0.0
