,Sub,Run,TR,Onset,Item,Resp,RT,image_on,button_on,button_off,Trial_ID,stim,switchButtonOrientation
0,sub004,1,3,0,,,,,,,,blank,1.0
1,sub004,1,4,2,,,,,,,,blank,1.0
2,sub004,1,5,4,,,,,,,,blank,1.0
3,sub004,1,6,6,A,1,0.8666802599909715,11.999759422964416,13.01641998195555,13.902722263999749,0,stim,0.0
4,sub004,1,7,8,,,,,,,,blank,0.0
5,sub004,1,8,10,,,,,,,,blank,0.0
6,sub004,1,9,12,D,1,0.7166703499970026,17.999854958965443,19.016452990996186,19.916524339001626,1,stim,1.0
7,sub004,1,10,14,,,,,,,,blank,1.0
8,sub004,1,11,16,,,,,,,,blank,1.0
9,sub004,1,12,18,A,2,0.6666187010123394,23.999885084980633,25.016482906998135,25.916576741961762,2,stim,1.0
10,sub004,1,13,20,,,,,,,,blank,1.0
11,sub004,1,14,22,D,2,0.6999204670428298,27.999850199965294,29.016510059998836,29.91659035597695,3,stim,0.0
12,sub004,1,15,24,,,,,,,,blank,0.0
13,sub004,1,16,26,,,,,,,,blank,0.0
14,sub004,1,17,28,C,2,0.616677915037144,34.01653748896206,35.03622746397741,35.933280887955334,4,stim,1.0
15,sub004,1,18,30,,,,,,,,blank,1.0
16,sub004,1,19,32,,,,,,,,blank,1.0
17,sub004,1,20,34,D,2,0.6167365969740786,40.01657630800037,41.03639678895706,41.93331796396524,5,stim,0.0
18,sub004,1,21,36,,,,,,,,blank,0.0
19,sub004,1,22,38,,,,,,,,blank,0.0
20,sub004,1,23,40,,,,,,,,blank,0.0
21,sub004,1,24,42,C,2,0.5468294160091318,48.01980515499599,49.036258092965,49.93329220300075,6,stim,1.0
22,sub004,1,25,44,,,,,,,,blank,1.0
23,sub004,1,26,46,,,,,,,,blank,1.0
24,sub004,1,27,48,,,,,,,,blank,1.0
25,sub004,1,28,50,B,1,0.4333426640368998,56.01673331996426,57.019743007957004,57.93335548596224,7,stim,1.0
26,sub004,1,29,52,,,,,,,,blank,1.0
27,sub004,1,30,54,,,,,,,,blank,1.0
28,sub004,1,31,56,A,2,0.6970073969569057,62.01969799899962,63.03651233698474,63.933382385992445,8,stim,1.0
29,sub004,1,32,58,,,,,,,,blank,1.0
30,sub004,1,33,60,,,,,,,,blank,1.0
31,sub004,1,34,62,B,2,0.6137428879737854,68.0197103190003,69.03637994796736,69.9334752089926,9,stim,0.0
32,sub004,1,35,64,,,,,,,,blank,0.0
33,sub004,1,36,66,C,2,0.6000942070386373,72.01662908797152,73.03554380399873,73.93340676295338,10,stim,1.0
34,sub004,1,37,68,,,,,,,,blank,1.0
35,sub004,1,38,70,B,1,0.516827987972647,75.99991701199906,77.01893094496336,77.9167610629811,11,stim,1.0
36,sub004,1,39,72,,,,,,,,blank,1.0
37,sub004,1,40,74,C,1,0.5333374390029348,80.00008782598889,81.01669178495649,81.91669612098485,12,stim,0.0
38,sub004,1,41,76,,,,,,,,blank,0.0
39,sub004,1,42,78,,,,,,,,blank,0.0
40,sub004,1,43,80,,,,,,,,blank,0.0
41,sub004,1,44,82,D,2,0.5500379420118406,88.00012253999012,89.0189622209873,89.91680627100868,13,stim,0.0
42,sub004,1,45,84,,,,,,,,blank,0.0
43,sub004,1,46,86,,,,,,,,blank,0.0
44,sub004,1,47,88,B,1,0.399976163986139,94.0001555379713,95.01904917397769,95.91681930999039,14,stim,1.0
45,sub004,1,48,90,,,,,,,,blank,1.0
46,sub004,1,49,92,A,1,0.5334829200292006,98.00003805896267,99.01911745697726,99.9168374579749,15,stim,0.0
47,sub004,1,50,94,,,,,,,,blank,0.0
48,sub004,1,51,96,B,1,0.5168749410076998,102.0000664209947,103.01927087898366,103.91689765296178,16,stim,1.0
49,sub004,1,52,98,,,,,,,,blank,1.0
50,sub004,1,53,100,,,,,,,,blank,1.0
51,sub004,1,54,102,D,1,0.5332424600492232,108.00037429796066,109.02009658800671,109.91703351400793,17,stim,1.0
52,sub004,1,55,104,,,,,,,,blank,1.0
53,sub004,1,56,106,,,,,,,,blank,1.0
54,sub004,1,57,108,C,1,0.49993130000075325,114.0003203189699,115.0201043819543,115.91705125395674,18,stim,0.0
55,sub004,1,58,110,,,,,,,,blank,0.0
56,sub004,1,59,112,D,2,0.5165956090204418,118.00041480496293,119.01997006800957,119.91701147001004,19,stim,0.0
57,sub004,1,60,114,,,,,,,,blank,0.0
58,sub004,1,61,116,,,,,,,,blank,0.0
59,sub004,1,62,118,,,,,,,,blank,0.0
60,sub004,1,63,120,A,2,0.5332782149780542,126.00044821598567,127.02000819897512,127.91705852298765,20,stim,1.0
61,sub004,1,64,122,,,,,,,,blank,1.0
62,sub004,1,65,124,B,1,0.43333051301306114,130.00049471395323,131.02003043796867,131.91708757000742,21,stim,1.0
63,sub004,1,66,126,,,,,,,,blank,1.0
64,sub004,1,67,128,A,2,0.4166830600006506,134.0004839139874,135.02019179798663,135.9171568210004,22,stim,1.0
65,sub004,1,68,130,,,,,,,,blank,1.0
66,sub004,1,69,132,C,2,0.4334114140365273,138.00036562397145,139.0202730379533,139.91719343297882,23,stim,1.0
67,sub004,1,70,134,,,,,,,,blank,1.0
68,sub004,1,71,136,,,,,,,,blank,1.0
69,sub004,1,72,138,,,,,,,,blank,1.0
70,sub004,1,73,140,D,1,0.46662667900091037,146.00055099697784,147.02025278500514,147.9171681429725,24,stim,1.0
71,sub004,1,74,142,,,,,,,,blank,1.0
72,sub004,1,75,144,,,,,,,,blank,1.0
73,sub004,1,76,146,A,1,0.5166130710276775,152.00060573295923,153.02014891500585,153.9172024729778,25,stim,0.0
74,sub004,1,77,148,,,,,,,,blank,0.0
75,sub004,1,78,150,,,,,,,,blank,0.0
76,sub004,1,79,152,D,1,0.5166273729992099,158.00059812195832,159.02022198296618,159.91731867898488,26,stim,1.0
77,sub004,1,80,154,,,,,,,,blank,1.0
78,sub004,1,81,156,C,2,0.5000066729844548,162.00064816698432,163.02028779900866,163.9172556749545,27,stim,1.0
79,sub004,1,82,158,,,,,,,,blank,1.0
80,sub004,1,83,160,B,1,0.466585372982081,166.00068514200393,167.02034225699026,167.91728316096123,28,stim,1.0
81,sub004,1,84,162,,,,,,,,blank,1.0
82,sub004,1,85,164,,,,,,,,blank,1.0
83,sub004,1,86,166,,,,,,,,blank,1.0
84,sub004,1,87,168,A,1,0.45014539099065587,174.00056882499484,175.02025947795482,175.91737926501082,29,stim,0.0
85,sub004,1,88,170,,,,,,,,blank,0.0
86,sub004,1,89,172,,,,,,,,blank,0.0
87,sub004,1,90,174,B,2,0.46658887597732246,180.0007711490034,181.02040489198407,181.91739968099864,30,stim,0.0
88,sub004,1,91,176,,,,,,,,blank,0.0
89,sub004,1,92,178,,,,,,,,blank,0.0
90,sub004,1,93,180,,,,,,,,blank,0.0
91,sub004,1,94,182,C,2,0.46680041699437425,188.00063702196348,189.0203850879916,189.9174551279866,31,stim,1.0
92,sub004,1,95,184,,,,,,,,blank,1.0
93,sub004,1,96,186,,,,,,,,blank,1.0
94,sub004,1,97,188,B,1,0.46660183696076274,194.00081630400382,195.02049003000138,195.91747417196166,32,stim,1.0
95,sub004,1,98,190,,,,,,,,blank,1.0
96,sub004,1,99,192,,,,,,,,blank,1.0
97,sub004,1,100,194,C,1,0.4832770039793104,200.00085375399794,201.02040380396647,201.91746273299213,33,stim,0.0
98,sub004,1,101,196,,,,,,,,blank,0.0
99,sub004,1,102,198,,,,,,,,blank,0.0
100,sub004,1,103,200,D,2,0.4499450180446729,206.00087900896324,207.02044875896536,207.91747999098152,34,stim,0.0
101,sub004,1,104,202,,,,,,,,blank,0.0
102,sub004,1,105,204,,,,,,,,blank,0.0
103,sub004,1,106,206,,,,,,,,blank,0.0
104,sub004,1,107,208,A,2,0.5000150369596668,214.00093196099624,215.02062200097134,215.91752813698258,35,stim,1.0
105,sub004,1,108,210,,,,,,,,blank,1.0
106,sub004,1,109,212,,,,,,,,blank,1.0
107,sub004,1,110,214,B,1,0.4665853100013919,220.00097588897916,221.02051734097768,221.91756307997275,36,stim,1.0
108,sub004,1,111,216,,,,,,,,blank,1.0
109,sub004,1,112,218,C,2,0.6000303939799778,224.00097282900242,225.02051521197427,225.91747939196648,37,stim,1.0
110,sub004,1,113,220,,,,,,,,blank,1.0
111,sub004,1,114,222,D,2,0.44986143097048625,228.00088997598505,229.01995495700976,229.91749524895567,38,stim,0.0
112,sub004,1,115,224,,,,,,,,blank,0.0
113,sub004,1,116,226,A,1,0.4499429209972732,232.0010212219786,233.020706346957,233.9176342790015,39,stim,0.0
114,sub004,1,117,228,,,,,,,,blank,0.0
115,sub004,1,118,230,D,2,0.38327418599510565,236.00104816898238,237.02057397097815,237.9176470459788,40,stim,0.0
116,sub004,1,119,232,,,,,,,,blank,0.0
117,sub004,1,120,234,,,,,,,,blank,0.0
118,sub004,1,121,236,C,1,0.6998526719980873,242.0010876400047,243.02074370195623,243.9176843239693,41,stim,0.0
119,sub004,1,122,238,,,,,,,,blank,0.0
120,sub004,1,123,240,B,2,0.44994243897963315,246.00109863397665,247.02065465896158,247.91775243199663,42,stim,0.0
121,sub004,1,124,242,,,,,,,,blank,0.0
122,sub004,1,125,244,D,1,0.4666971929837018,250.00105981598608,251.0207005639677,251.91780100396136,43,stim,1.0
123,sub004,1,126,246,,,,,,,,blank,1.0
124,sub004,1,127,248,,,,,,,,blank,1.0
125,sub004,1,128,250,,,,,,,,blank,1.0
126,sub004,1,129,252,A,2,0.41667797398986295,258.001163879002,259.02082307997625,259.9177635369706,44,stim,1.0
127,sub004,1,130,254,,,,,,,,blank,1.0
128,sub004,1,131,256,,,,,,,,blank,1.0
129,sub004,1,132,258,,,,,,,,blank,1.0
130,sub004,1,133,260,B,1,0.3500416419701651,266.0011676999857,267.0207963649882,267.91787549096625,45,stim,0.0
131,sub004,1,134,262,,2,1.036482488969341,,,,,blank,0.0
132,sub004,1,135,264,,,,,,,,blank,0.0
133,sub004,1,136,266,C,2,0.4666989679681137,272.0010974709876,273.0201752309804,273.9177314689732,46,stim,1.0
134,sub004,1,137,268,,,,,,,,blank,1.0
135,sub004,1,138,270,A,1,0.5000485699856654,276.00115092500346,277.02103221596917,277.9178684949875,47,stim,0.0
136,sub004,1,139,272,,,,,,,,blank,0.0
137,sub004,1,140,274,,,,,,,,blank,0.0
138,sub004,1,141,276,,,,,,,,blank,0.0
139,sub004,1,142,278,,,,,,,,blank,0.0
140,sub004,1,143,280,,,,,,,,blank,0.0
