,Sub,Run,TR,Onset,Item,Resp,RT,image_on,button_on,button_off,Trial_ID,stim,switchButtonOrientation
0,sub004,3,3,0,,,,,,,,blank,0.0
1,sub004,3,4,2,,,,,,,,blank,0.0
2,sub004,3,5,4,,,,,,,,blank,0.0
3,sub004,3,6,6,A,1,0.6666695100138895,12.002929605951067,13.019804656971246,13.919597571948543,0,stim,0.0
4,sub004,3,7,8,,,,,,,,blank,0.0
5,sub004,3,8,10,,,,,,,,blank,0.0
6,sub004,3,9,12,,,,,,,,blank,0.0
7,sub004,3,10,14,C,1,0.5000138779869303,20.005340458999854,21.024288879998494,21.92207711399533,1,stim,0.0
8,sub004,3,11,16,,,,,,,,blank,0.0
9,sub004,3,12,18,,,,,,,,blank,0.0
10,sub004,3,13,20,A,1,0.48335381102515385,26.005438123946078,27.024280037963763,27.922053962945938,2,stim,0.0
11,sub004,3,14,22,,,,,,,,blank,0.0
12,sub004,3,15,24,B,1,0.5333359530195594,30.005473107972648,31.0243128289585,31.92208483896684,3,stim,1.0
13,sub004,3,16,26,,,,,,,,blank,1.0
14,sub004,3,17,28,,,,,,,,blank,1.0
15,sub004,3,18,30,D,2,0.5858199900249019,36.00561236194335,37.02517691598041,37.92210120795062,4,stim,0.0
16,sub004,3,19,32,,,,,,,,blank,0.0
17,sub004,3,20,34,,,,,,,,blank,0.0
18,sub004,3,21,36,,,,,,,,blank,0.0
19,sub004,3,22,38,A,2,0.6499387939693406,44.005566529987846,45.02437723096227,45.92222915397724,5,stim,1.0
20,sub004,3,23,40,,,,,,,,blank,1.0
21,sub004,3,24,42,D,1,0.5514635079889558,48.005524527980015,49.02445124898804,49.92225519899512,6,stim,1.0
22,sub004,3,25,44,,,,,,,,blank,1.0
23,sub004,3,26,46,B,1,0.5333956410177052,52.00556595897069,53.024505344976205,53.922287991968915,7,stim,1.0
24,sub004,3,27,48,,,,,,,,blank,1.0
25,sub004,3,28,50,,,,,,,,blank,1.0
26,sub004,3,29,52,C,2,0.5000831360230222,58.005584683967754,59.024478293955326,59.922346088977065,8,stim,1.0
27,sub004,3,30,54,,,,,,,,blank,1.0
28,sub004,3,31,56,,,,,,,,blank,1.0
29,sub004,3,32,58,B,2,0.6166110130143352,64.0056919689523,65.02451853995444,65.92229998699622,9,stim,0.0
30,sub004,3,33,60,,,,,,,,blank,0.0
31,sub004,3,34,62,,,,,,,,blank,0.0
32,sub004,3,35,64,C,1,0.5513140530092642,70.00573662895476,71.02475331199821,71.9223627759493,10,stim,0.0
33,sub004,3,36,66,,,,,,,,blank,0.0
34,sub004,3,37,68,,,,,,,,blank,0.0
35,sub004,3,38,70,D,2,0.6833365249913186,76.00578854995547,77.02465941896662,77.92237722099526,11,stim,0.0
36,sub004,3,39,72,,,,,,,,blank,0.0
37,sub004,3,40,74,,,,,,,,blank,0.0
38,sub004,3,41,76,C,,,82.00574164296268,83.02489093196345,83.92249882395845,12,stim,0.0
39,sub004,3,42,78,,1,1.0833380240364932,,,,,blank,0.0
40,sub004,3,43,80,A,2,0.750150240957737,86.00583676499082,87.02565633895574,87.92256312898826,13,stim,1.0
41,sub004,3,44,82,,,,,,,,blank,1.0
42,sub004,3,45,84,,,,,,,,blank,1.0
43,sub004,3,46,86,D,1,0.6165779600269161,92.0059070699499,93.02471665898338,93.92249611596344,14,stim,1.0
44,sub004,3,47,88,,,,,,,,blank,1.0
45,sub004,3,48,90,,,,,,,,blank,1.0
46,sub004,3,49,92,B,1,0.5514196599833667,98.00588890200015,99.02480187296169,99.92258594196755,15,stim,1.0
47,sub004,3,50,94,,,,,,,,blank,1.0
48,sub004,3,51,96,,,,,,,,blank,1.0
49,sub004,3,52,98,,,,,,,,blank,1.0
50,sub004,3,53,100,A,2,0.48331588198198006,106.00598920497578,107.02477005397668,107.9225669359439,16,stim,1.0
51,sub004,3,54,102,,,,,,,,blank,1.0
52,sub004,3,55,104,D,1,0.5695525929913856,110.00598993798485,111.02481373294722,111.92263890698086,17,stim,1.0
53,sub004,3,56,106,,,,,,,,blank,1.0
54,sub004,3,57,108,,,,,,,,blank,1.0
55,sub004,3,58,110,,,,,,,,blank,1.0
56,sub004,3,59,112,B,1,0.48333766602445394,118.00597778195515,119.02486208197661,119.92291624995414,18,stim,1.0
57,sub004,3,60,114,,,,,,,,blank,1.0
58,sub004,3,61,116,C,2,0.6334197499672882,122.00598873698618,123.0249295969843,123.92273933097022,19,stim,1.0
59,sub004,3,62,118,,,,,,,,blank,1.0
60,sub004,3,63,120,,,,,,,,blank,1.0
61,sub004,3,64,122,,,,,,,,blank,1.0
62,sub004,3,65,124,A,1,0.4333275440149009,130.0060681309551,131.02499808295397,131.9229096309864,20,stim,0.0
63,sub004,3,66,126,,,,,,,,blank,0.0
64,sub004,3,67,128,,,,,,,,blank,0.0
65,sub004,3,68,130,C,1,0.4333964579855092,136.00607719196705,137.02506571094273,137.9228467239882,21,stim,0.0
66,sub004,3,69,132,,,,,,,,blank,0.0
67,sub004,3,70,134,,,,,,,,blank,0.0
68,sub004,3,71,136,B,1,0.4000120529672131,142.00613389298087,143.02523950394243,143.9228677659994,22,stim,1.0
69,sub004,3,72,138,,,,,,,,blank,1.0
70,sub004,3,73,140,,,,,,,,blank,1.0
71,sub004,3,74,142,D,1,0.4832807909697294,148.0062122279778,149.02505454298807,149.9228388609481,23,stim,1.0
72,sub004,3,75,144,,,,,,,,blank,1.0
73,sub004,3,76,146,,,,,,,,blank,1.0
74,sub004,3,77,148,,,,,,,,blank,1.0
75,sub004,3,78,150,B,2,0.5334263719851151,156.00621702097123,157.0251755559584,157.9229469979764,24,stim,0.0
76,sub004,3,79,152,,,,,,,,blank,0.0
77,sub004,3,80,154,C,1,0.5333975619869307,160.00625419797143,161.0251994759892,161.92297507094918,25,stim,0.0
78,sub004,3,81,156,,,,,,,,blank,0.0
79,sub004,3,82,158,D,1,0.5166449520038441,164.00628627394326,165.02523659495637,165.92300585698104,26,stim,1.0
80,sub004,3,83,160,,,,,,,,blank,1.0
81,sub004,3,84,162,,,,,,,,blank,1.0
82,sub004,3,85,164,,,,,,,,blank,1.0
83,sub004,3,86,166,B,1,0.4334026129799895,172.00631173397414,173.02525344799506,173.9230577229755,27,stim,1.0
84,sub004,3,87,168,,,,,,,,blank,1.0
85,sub004,3,88,170,,,,,,,,blank,1.0
86,sub004,3,89,172,C,1,0.44988329999614507,178.00653202395188,179.02523758495227,179.9230959759443,28,stim,0.0
87,sub004,3,90,174,,,,,,,,blank,0.0
88,sub004,3,91,176,B,2,0.4833371640415862,182.00637804495636,183.0253429589793,183.9230999609572,29,stim,0.0
89,sub004,3,92,178,,,,,,,,blank,0.0
90,sub004,3,93,180,D,2,0.5859721929882653,186.0064239379717,187.02533497294644,187.92312817496713,30,stim,0.0
91,sub004,3,94,182,,,,,,,,blank,0.0
92,sub004,3,95,184,A,1,0.4833451170125045,190.00649111997336,191.0255312709487,191.92309002095135,31,stim,0.0
93,sub004,3,96,186,,,,,,,,blank,0.0
94,sub004,3,97,188,,,,,,,,blank,0.0
95,sub004,3,98,190,C,2,0.8667053819517605,196.0064696519985,197.0253997219843,197.92313612194266,32,stim,1.0
96,sub004,3,99,192,,,,,,,,blank,1.0
97,sub004,3,100,194,,,,,,,,blank,1.0
98,sub004,3,101,196,A,2,0.48327514703851193,202.00656027294463,203.0253868509899,203.92321447399445,33,stim,1.0
99,sub004,3,102,198,,,,,,,,blank,1.0
100,sub004,3,103,200,D,1,0.5859911590232514,206.00651009194553,207.0257229989511,207.92324603395537,34,stim,1.0
101,sub004,3,104,202,,,,,,,,blank,1.0
102,sub004,3,105,204,A,1,0.49999657802982256,210.00654500594828,211.02550178597448,211.9232920819777,35,stim,0.0
103,sub004,3,106,206,,,,,,,,blank,0.0
104,sub004,3,107,208,,,,,,,,blank,0.0
105,sub004,3,108,210,C,2,0.48333477904088795,216.00665027095238,217.02569228294306,217.92324821196962,36,stim,1.0
106,sub004,3,109,212,,,,,,,,blank,1.0
107,sub004,3,110,214,B,2,0.4999962740112096,220.00667577795684,221.02557674294803,221.92326612194302,37,stim,0.0
108,sub004,3,111,216,,,,,,,,blank,0.0
109,sub004,3,112,218,,,,,,,,blank,0.0
110,sub004,3,113,220,D,2,0.483347705041524,226.00682768895058,227.02638086595107,227.92331024899613,38,stim,0.0
111,sub004,3,114,222,,,,,,,,blank,0.0
112,sub004,3,115,224,B,1,0.5999721690313891,230.00671587896068,231.02563402499072,231.9233263770002,39,stim,1.0
113,sub004,3,116,226,,,,,,,,blank,1.0
114,sub004,3,117,228,C,2,0.46668695204425603,234.00675857794704,235.02579867094755,235.9233477069647,40,stim,1.0
115,sub004,3,118,230,,,,,,,,blank,1.0
116,sub004,3,119,232,A,1,0.43329127301694825,238.00676977296825,239.0256349009578,239.9233850009623,41,stim,0.0
117,sub004,3,120,234,,,,,,,,blank,0.0
118,sub004,3,121,236,D,2,0.4499476490309462,242.00679505296284,243.0256519469549,243.92340036894893,42,stim,0.0
119,sub004,3,122,238,,,,,,,,blank,0.0
120,sub004,3,123,240,,,,,,,,blank,0.0
121,sub004,3,124,242,,,,,,,,blank,0.0
122,sub004,3,125,244,A,2,0.7332917000167072,250.0068511829595,251.02568543999223,251.92349011497572,43,stim,1.0
123,sub004,3,126,246,,,,,,,,blank,1.0
124,sub004,3,127,248,,,,,,,,blank,1.0
125,sub004,3,128,250,,,,,,,,blank,1.0
126,sub004,3,129,252,B,2,0.46670778800034896,258.0068386589992,259.025737760996,259.9235903249937,44,stim,0.0
127,sub004,3,130,254,,,,,,,,blank,0.0
128,sub004,3,131,256,A,1,0.5697450079605915,262.0068416069844,263.0257676889887,263.9235947529669,45,stim,0.0
129,sub004,3,132,258,,,,,,,,blank,0.0
130,sub004,3,133,260,,,,,,,,blank,0.0
131,sub004,3,134,262,,,,,,,,blank,0.0
132,sub004,3,135,264,D,1,0.5000117539893836,270.0070387519663,271.02669636398787,271.923690103984,46,stim,1.0
133,sub004,3,136,266,,,,,,,,blank,1.0
134,sub004,3,137,268,,,,,,,,blank,1.0
135,sub004,3,138,270,C,2,0.41650626697810367,276.00710865698056,277.0259010809823,277.9236549899797,47,stim,1.0
136,sub004,3,139,272,,,,,,,,blank,1.0
137,sub004,3,140,274,,,,,,,,blank,1.0
138,sub004,3,141,276,,,,,,,,blank,1.0
139,sub004,3,142,278,,,,,,,,blank,1.0
140,sub004,3,143,280,,,,,,,,blank,1.0
