,Sub,Run,TR,Onset,Item,Resp,RT,image_on,button_on,button_off,Trial_ID,stim,switchButtonOrientation
0,sub004,7,3,0,,,,,,,,blank,1.0
1,sub004,7,4,2,,,,,,,,blank,1.0
2,sub004,7,5,4,,,,,,,,blank,1.0
3,sub004,7,6,6,B,1,0.46667068399256095,12.000869237002917,13.017754020984285,13.917546532989945,0,stim,1.0
4,sub004,7,7,8,,,,,,,,blank,1.0
5,sub004,7,8,10,,,,,,,,blank,1.0
6,sub004,7,9,12,D,2,0.43334896996384487,18.000912596995477,19.017673253954854,19.917590931989253,1,stim,0.0
7,sub004,7,10,14,,,,,,,,blank,0.0
8,sub004,7,11,16,,,,,,,,blank,0.0
9,sub004,7,12,18,C,2,0.43327037198469043,24.003347390971612,25.022308201994747,25.919989555957727,2,stim,1.0
10,sub004,7,13,20,,,,,,,,blank,1.0
11,sub004,7,14,22,,,,,,,,blank,1.0
12,sub004,7,15,24,A,2,0.5000207709963433,30.003350186976604,31.022255666961428,31.920112715975847,3,stim,1.0
13,sub004,7,16,26,,,,,,,,blank,1.0
14,sub004,7,17,28,B,1,0.46674277499550954,34.0033750559669,35.02253649296472,35.92012969200732,4,stim,1.0
15,sub004,7,18,30,,,,,,,,blank,1.0
16,sub004,7,19,32,,,,,,,,blank,1.0
17,sub004,7,20,34,D,2,0.44978086004266515,40.00364573695697,41.022356587985996,41.920089340012055,5,stim,0.0
18,sub004,7,21,36,,,,,,,,blank,0.0
19,sub004,7,22,38,,,,,,,,blank,0.0
20,sub004,7,23,40,A,2,0.5334356210078113,46.00345222000033,47.02336568298051,47.92022122995695,6,stim,1.0
21,sub004,7,24,42,,,,,,,,blank,1.0
22,sub004,7,25,44,B,2,0.4500860399566591,50.00348767300602,51.02246329700574,51.92022311600158,7,stim,0.0
23,sub004,7,26,46,,,,,,,,blank,0.0
24,sub004,7,27,48,,,,,,,,blank,0.0
25,sub004,7,28,50,C,1,0.4499412880395539,56.00359929195838,57.02242313401075,57.92019963701023,8,stim,0.0
26,sub004,7,29,52,,,,,,,,blank,0.0
27,sub004,7,30,54,D,2,0.7166790010523982,60.003617999958806,61.02264541195473,61.92023290495854,9,stim,0.0
28,sub004,7,31,56,,,,,,,,blank,0.0
29,sub004,7,32,58,,,,,,,,blank,0.0
30,sub004,7,33,60,C,1,0.5000089349923655,66.00366988300811,67.02249264897546,67.92026753496611,10,stim,0.0
31,sub004,7,34,62,,,,,,,,blank,0.0
32,sub004,7,35,64,A,2,0.4499387419782579,70.00368505198276,71.02273121796316,71.92029470199486,11,stim,1.0
33,sub004,7,36,66,,,,,,,,blank,1.0
34,sub004,7,37,68,D,,,74.00371199200163,75.02277660998516,75.92033355298918,12,stim,1.0
35,sub004,7,38,70,,,,,,,,blank,1.0
36,sub004,7,39,72,,,,,,,,blank,1.0
37,sub004,7,40,74,,,,,,,,blank,1.0
38,sub004,7,41,76,A,2,0.8833296179655008,82.00379198300652,83.02279287501005,83.92268178495578,13,stim,1.0
39,sub004,7,42,78,,,,,,,,blank,1.0
40,sub004,7,43,80,D,2,0.49999956000829116,86.00373635499272,87.02282875101082,87.92049819196109,14,stim,0.0
41,sub004,7,44,82,,,,,,,,blank,0.0
42,sub004,7,45,84,,,,,,,,blank,0.0
43,sub004,7,46,86,C,2,0.43346887396182865,92.00383329601027,93.0235164409969,93.92056518100435,15,stim,1.0
44,sub004,7,47,88,,,,,,,,blank,1.0
45,sub004,7,48,90,B,2,0.43340197898214683,96.00391575798858,97.02352749696001,97.92065056000138,16,stim,0.0
46,sub004,7,49,92,,,,,,,,blank,0.0
47,sub004,7,50,94,,,,,,,,blank,0.0
48,sub004,7,51,96,,,,,,,,blank,0.0
49,sub004,7,52,98,D,1,0.5666864860104397,104.00386396498652,105.02296413097065,105.92060570098693,17,stim,1.0
50,sub004,7,53,100,,,,,,,,blank,1.0
51,sub004,7,54,102,,,,,,,,blank,1.0
52,sub004,7,55,104,,,,,,,,blank,1.0
53,sub004,7,56,106,B,1,0.4500925060128793,112.00391945999581,113.0228480109945,113.92064956401009,18,stim,1.0
54,sub004,7,57,108,,,,,,,,blank,1.0
55,sub004,7,58,110,,,,,,,,blank,1.0
56,sub004,7,59,112,,,,,,,,blank,1.0
57,sub004,7,60,114,A,1,0.4500816770014353,120.00396734196693,121.02315509400796,121.92072788800579,19,stim,0.0
58,sub004,7,61,116,,,,,,,,blank,0.0
59,sub004,7,62,118,,,,,,,,blank,0.0
60,sub004,7,63,120,B,1,0.3832743599778041,126.00407548499061,127.02290191198699,127.92067503597355,20,stim,1.0
61,sub004,7,64,122,,,,,,,,blank,1.0
62,sub004,7,65,124,C,,,130.0041192859644,131.0229565029731,131.92070824297844,21,stim,1.0
63,sub004,7,66,126,,2,1.0832625070470385,,,,,blank,1.0
64,sub004,7,67,128,A,1,0.43330637499457225,134.00414176599588,135.02297813096084,135.9207279009861,22,stim,0.0
65,sub004,7,68,130,,,,,,,,blank,0.0
66,sub004,7,69,132,,,,,,,,blank,0.0
67,sub004,7,70,134,C,1,0.4166392849874683,140.0042485090089,141.02387971396092,141.92094595899107,23,stim,0.0
68,sub004,7,71,136,,,,,,,,blank,0.0
69,sub004,7,72,138,,,,,,,,blank,0.0
70,sub004,7,73,140,,,,,,,,blank,0.0
71,sub004,7,74,142,B,2,0.5999637790373527,148.00427427096292,149.0230469739763,149.92088884598343,24,stim,0.0
72,sub004,7,75,144,,,,,,,,blank,0.0
73,sub004,7,76,146,C,1,0.5167528800084256,152.0041810849798,153.02309915598016,153.92087094997987,25,stim,0.0
74,sub004,7,77,148,,,,,,,,blank,0.0
75,sub004,7,78,150,A,2,0.633268995967228,156.00426719500683,157.02311955497134,157.9208778369939,26,stim,1.0
76,sub004,7,79,152,,,,,,,,blank,1.0
77,sub004,7,80,154,,,,,,,,blank,1.0
78,sub004,7,81,156,B,1,0.41668476397171617,162.0042301180074,163.02317701798165,163.92098559997976,27,stim,1.0
79,sub004,7,82,158,,,,,,,,blank,1.0
80,sub004,7,83,160,,,,,,,,blank,1.0
81,sub004,7,84,162,D,2,0.4832677259691991,168.00435321300756,169.0231763109914,169.92098798695952,28,stim,0.0
82,sub004,7,85,164,,,,,,,,blank,0.0
83,sub004,7,86,166,A,1,0.5000072699622251,172.00430418399628,173.02324898098595,173.92104997998103,29,stim,0.0
84,sub004,7,87,168,,,,,,,,blank,0.0
85,sub004,7,88,170,,,,,,,,blank,0.0
86,sub004,7,89,172,,,,,,,,blank,0.0
87,sub004,7,90,174,C,2,0.6833446929813363,180.00441843498265,181.0233197849593,181.92108501499752,30,stim,1.0
88,sub004,7,91,176,,,,,,,,blank,1.0
89,sub004,7,92,178,A,1,0.7832034599850886,184.0045981479925,185.024063105986,185.92105469095986,31,stim,0.0
90,sub004,7,93,180,,,,,,,,blank,0.0
91,sub004,7,94,182,,,,,,,,blank,0.0
92,sub004,7,95,184,D,1,0.5164745020447299,190.00463012995897,191.02358094399096,191.9211607729667,32,stim,1.0
93,sub004,7,96,186,,,,,,,,blank,1.0
94,sub004,7,97,188,,,,,,,,blank,1.0
95,sub004,7,98,190,C,1,0.4832872190163471,196.00453117699362,197.02333828195697,197.92116770596476,33,stim,0.0
96,sub004,7,99,192,,,,,,,,blank,0.0
97,sub004,7,100,194,B,1,0.5499505090410821,200.00455806095852,201.02339209697675,201.92116163298488,34,stim,0.0
98,sub004,7,101,196,,,,,,,,blank,0.0
99,sub004,7,102,198,,,,,,,,blank,0.0
100,sub004,7,103,200,,,,,,,,blank,0.0
101,sub004,7,104,202,D,2,0.5499840080155991,208.00464135897346,209.02347940497566,209.92128477199003,35,stim,0.0
102,sub004,7,105,204,,,,,,,,blank,0.0
103,sub004,7,106,206,,,,,,,,blank,0.0
104,sub004,7,107,208,A,2,0.5000124310026877,214.00465135497507,215.02346729597775,215.92128290596884,36,stim,1.0
105,sub004,7,108,210,,,,,,,,blank,1.0
106,sub004,7,109,212,,,,,,,,blank,1.0
107,sub004,7,110,214,D,1,0.5332460780045949,220.00469976797467,221.02352832898032,221.92129054199904,37,stim,1.0
108,sub004,7,111,216,,,,,,,,blank,1.0
109,sub004,7,112,218,,,,,,,,blank,1.0
110,sub004,7,113,220,C,2,0.4667422900092788,226.00465787696885,227.02360731596127,227.9214040020015,38,stim,1.0
111,sub004,7,114,222,,,,,,,,blank,1.0
112,sub004,7,115,224,B,1,0.7833377030328847,230.00468410697067,231.02364044898422,231.92142663296545,39,stim,1.0
113,sub004,7,116,226,,,,,,,,blank,1.0
114,sub004,7,117,228,,,,,,,,blank,1.0
115,sub004,7,118,230,A,2,0.48334377200808376,236.00484045798657,237.02448649000144,237.92146519001108,40,stim,1.0
116,sub004,7,119,232,,,,,,,,blank,1.0
117,sub004,7,120,234,D,2,0.5167555590160191,240.00474616896827,241.0237264999887,241.92148692900082,41,stim,0.0
118,sub004,7,121,236,,,,,,,,blank,0.0
119,sub004,7,122,238,B,1,0.4500726580154151,244.00476972397882,245.02374358399538,245.9215088019846,42,stim,1.0
120,sub004,7,123,240,,,,,,,,blank,1.0
121,sub004,7,124,242,,,,,,,,blank,1.0
122,sub004,7,125,244,D,2,0.6999887770507485,250.00491309695644,251.02394687896594,251.92149187100586,43,stim,0.0
123,sub004,7,126,246,,,,,,,,blank,0.0
124,sub004,7,127,248,B,1,0.4999970879871398,254.00490512896795,255.02374761900865,255.92151354596717,44,stim,1.0
125,sub004,7,128,250,,,,,,,,blank,1.0
126,sub004,7,129,252,,,,,,,,blank,1.0
127,sub004,7,130,254,,,,,,,,blank,1.0
128,sub004,7,131,256,C,1,0.6833498339983635,262.0049482329632,263.02379467198625,263.92159178998554,45,stim,0.0
129,sub004,7,132,258,,,,,,,,blank,0.0
130,sub004,7,133,260,,,,,,,,blank,0.0
131,sub004,7,134,262,,,,,,,,blank,0.0
132,sub004,7,135,264,A,1,0.5333982899901457,270.00494940398494,271.0240338469739,271.92168266995577,46,stim,0.0
133,sub004,7,136,266,,,,,,,,blank,0.0
134,sub004,7,137,268,C,2,0.8000265880255029,274.00501129898475,275.02387742797146,275.92163488897495,47,stim,1.0
135,sub004,7,138,270,,,,,,,,blank,1.0
136,sub004,7,139,272,,,,,,,,blank,1.0
137,sub004,7,140,274,,,,,,,,blank,1.0
138,sub004,7,141,276,,,,,,,,blank,1.0
139,sub004,7,142,278,,,,,,,,blank,1.0
