,Sub,Run,TR,Onset,Item,Resp,RT,image_on,button_on,button_off,Trial_ID,stim,switchButtonOrientation
0,sub004,4,3,0,,,,,,,,blank,1.0
1,sub004,4,4,2,,,,,,,,blank,1.0
2,sub004,4,5,4,,,,,,,,blank,1.0
3,sub004,4,6,6,A,1,0.5000097180018201,12.012689889001194,13.029434205032885,13.92967977700755,0,stim,0.0
4,sub004,4,7,8,,,,,,,,blank,0.0
5,sub004,4,8,10,B,2,0.5166732549550943,16.012724506028462,17.029461436031852,17.92973259597784,1,stim,0.0
6,sub004,4,9,12,,,,,,,,blank,0.0
7,sub004,4,10,14,A,1,0.41783405299065635,20.012755362025928,21.032137267990038,21.932125402032398,2,stim,0.0
8,sub004,4,11,16,,,,,,,,blank,0.0
9,sub004,4,12,18,C,2,0.49997303797863424,24.015152623003814,25.033793209004216,25.933974449988455,3,stim,1.0
10,sub004,4,13,20,,,,,,,,blank,1.0
11,sub004,4,14,22,D,2,0.5167002519592643,28.015148196020164,29.034140835981816,29.93445459200302,4,stim,0.0
12,sub004,4,15,24,,,,,,,,blank,0.0
13,sub004,4,16,26,,,,,,,,blank,0.0
14,sub004,4,17,28,C,1,0.4334262720076367,34.01522061298601,35.034407254017424,35.93455459701363,5,stim,0.0
15,sub004,4,18,30,,,,,,,,blank,0.0
16,sub004,4,19,32,B,2,0.5000557440216653,38.01524653099477,39.03421871003229,39.93458063702565,6,stim,0.0
17,sub004,4,20,34,,,,,,,,blank,0.0
18,sub004,4,21,36,D,2,0.5862160870456137,42.01527658698615,43.03523644298548,43.934596363978926,7,stim,0.0
19,sub004,4,22,38,,,,,,,,blank,0.0
20,sub004,4,23,40,A,1,0.4833344090147875,46.01533018500777,47.03426446899539,47.934632642020006,8,stim,0.0
21,sub004,4,24,42,,,,,,,,blank,0.0
22,sub004,4,25,44,,,,,,,,blank,0.0
23,sub004,4,26,46,,,,,,,,blank,0.0
24,sub004,4,27,48,D,1,0.666651270003058,54.01545237901155,55.034277982020285,55.918687301978935,9,stim,1.0
25,sub004,4,28,50,,,,,,,,blank,1.0
26,sub004,4,29,52,,,,,,,,blank,1.0
27,sub004,4,30,54,C,1,0.5167284980416298,60.015430320985615,61.03431819297839,61.934753219014965,10,stim,0.0
28,sub004,4,31,56,,,,,,,,blank,0.0
29,sub004,4,32,58,,,,,,,,blank,0.0
30,sub004,4,33,60,B,1,0.6666830210015178,66.01551449898398,67.03462259302614,67.93474927800708,11,stim,1.0
31,sub004,4,34,62,,,,,,,,blank,1.0
32,sub004,4,35,64,D,1,0.6359098309767433,70.01555297401501,71.03465667500859,71.93482111801859,12,stim,1.0
33,sub004,4,36,66,,,,,,,,blank,1.0
34,sub004,4,37,68,A,1,0.49996984703466296,74.01558828499401,75.03449795901543,75.93478969600983,13,stim,0.0
35,sub004,4,38,70,,,,,,,,blank,0.0
36,sub004,4,39,72,,,,,,,,blank,0.0
37,sub004,4,40,74,B,1,0.4167321679997258,80.01556840998819,81.03447463799966,81.9350027180044,14,stim,1.0
38,sub004,4,41,76,,,,,,,,blank,1.0
39,sub004,4,42,78,,,,,,,,blank,1.0
40,sub004,4,43,80,A,1,0.3832825419958681,86.01567210699432,87.03451992099872,87.93493443902116,15,stim,0.0
41,sub004,4,44,82,,,,,,,,blank,0.0
42,sub004,4,45,84,,,,,,,,blank,0.0
43,sub004,4,46,86,B,1,0.38327270600711927,92.0158321550116,93.03538002102869,93.9192806010251,16,stim,1.0
44,sub004,4,47,88,,,,,,,,blank,1.0
45,sub004,4,48,90,,,,,,,,blank,1.0
46,sub004,4,49,92,C,1,0.38334958598716184,98.01576329499949,99.03464454697678,99.93499478697777,17,stim,0.0
47,sub004,4,50,94,,,,,,,,blank,0.0
48,sub004,4,51,96,,,,,,,,blank,0.0
49,sub004,4,52,98,,,,,,,,blank,0.0
50,sub004,4,53,100,B,1,0.5167121270205826,106.01582339999732,107.03463898098562,107.93504834698979,18,stim,1.0
51,sub004,4,54,102,,,,,,,,blank,1.0
52,sub004,4,55,104,,,,,,,,blank,1.0
53,sub004,4,56,106,A,1,0.46674957597861066,112.0158081810223,113.0347492719884,113.93514470901573,19,stim,0.0
54,sub004,4,57,108,,,,,,,,blank,0.0
55,sub004,4,58,110,C,2,0.5501056520151906,116.01583198300796,117.03480201400816,117.93515068199486,20,stim,1.0
56,sub004,4,59,112,,,,,,,,blank,1.0
57,sub004,4,60,114,D,1,0.9025728800334036,120.01586973998928,121.0350124600227,121.9354504889925,21,stim,1.0
58,sub004,4,61,116,,,,,,,,blank,1.0
59,sub004,4,62,118,C,2,0.4666637110058218,124.01595812197775,125.03480881499127,125.9351516449824,22,stim,1.0
60,sub004,4,63,120,,,,,,,,blank,1.0
61,sub004,4,64,122,D,1,0.38327577599557117,127.99930650403257,129.01600126601988,129.91861076501664,23,stim,1.0
62,sub004,4,65,124,,,,,,,,blank,1.0
63,sub004,4,66,126,,,,,,,,blank,1.0
64,sub004,4,67,128,,,,,,,,blank,1.0
65,sub004,4,68,130,B,1,0.4166741549852304,135.99931628099876,137.01600331399823,137.91855260002194,24,stim,1.0
66,sub004,4,69,132,,,,,,,,blank,1.0
67,sub004,4,70,134,,,,,,,,blank,1.0
68,sub004,4,71,136,,,,,,,,blank,1.0
69,sub004,4,72,138,A,2,0.6356273539713584,143.99953125300817,145.0161508099991,145.91958559700288,25,stim,1.0
70,sub004,4,73,140,,,,,,,,blank,1.0
71,sub004,4,74,142,,,,,,,,blank,1.0
72,sub004,4,75,144,,,,,,,,blank,1.0
73,sub004,4,76,146,C,1,0.4498172060120851,151.99961554899346,153.01615443598712,153.91876370902173,26,stim,0.0
74,sub004,4,77,148,,,,,,,,blank,0.0
75,sub004,4,78,150,,,,,,,,blank,0.0
76,sub004,4,79,152,D,1,0.5167335380101576,158.0161373100127,159.03504839201923,159.93548283202108,27,stim,1.0
77,sub004,4,80,154,,,,,,,,blank,1.0
78,sub004,4,81,156,,,,,,,,blank,1.0
79,sub004,4,82,158,,,,,,,,blank,1.0
80,sub004,4,83,160,A,1,0.6180974150192924,166.01621447800426,167.03534204902826,167.93552565202117,28,stim,0.0
81,sub004,4,84,162,,,,,,,,blank,0.0
82,sub004,4,85,164,D,2,0.5334263980039395,170.0162252599839,171.0352313630283,171.93297448701924,29,stim,0.0
83,sub004,4,86,166,,,,,,,,blank,0.0
84,sub004,4,87,168,,,,,,,,blank,0.0
85,sub004,4,88,170,C,1,0.4499337339657359,176.01632753602462,177.0353595240158,177.9355897870264,30,stim,0.0
86,sub004,4,89,172,,,,,,,,blank,0.0
87,sub004,4,90,174,,,,,,,,blank,0.0
88,sub004,4,91,176,,,,,,,,blank,0.0
89,sub004,4,92,178,A,2,0.4666903149918653,184.01639822602738,185.0352121880278,185.93562609801302,31,stim,1.0
90,sub004,4,93,180,,,,,,,,blank,1.0
91,sub004,4,94,182,,,,,,,,blank,1.0
92,sub004,4,95,184,B,2,0.46670764399459586,190.01650010800222,191.03627614001743,191.91988143097842,32,stim,0.0
93,sub004,4,96,186,,,,,,,,blank,0.0
94,sub004,4,97,188,C,1,0.4499377900501713,194.0164566009771,195.0353222769918,195.93305681401398,33,stim,0.0
95,sub004,4,98,190,,,,,,,,blank,0.0
96,sub004,4,99,192,,,,,,,,blank,0.0
97,sub004,4,100,194,,,,,,,,blank,0.0
98,sub004,4,101,196,B,2,0.5334014469990507,201.99978981202003,203.0164573219954,203.9189450740232,34,stim,0.0
99,sub004,4,102,198,,,,,,,,blank,0.0
100,sub004,4,103,200,,,,,,,,blank,0.0
101,sub004,4,104,202,D,2,0.6694987309747376,207.99988542002393,209.01657844899455,209.91912675398635,35,stim,0.0
102,sub004,4,105,204,,,,,,,,blank,0.0
103,sub004,4,106,206,A,2,0.8500201280112378,211.99990235298174,213.01661459897878,213.91876225802116,36,stim,1.0
104,sub004,4,107,208,,,,,,,,blank,1.0
105,sub004,4,108,210,,,,,,,,blank,1.0
106,sub004,4,109,212,D,2,0.49995691201183945,217.9999426319846,219.01663336000638,219.9188720000093,37,stim,0.0
107,sub004,4,110,214,,,,,,,,blank,0.0
108,sub004,4,111,216,,,,,,,,blank,0.0
109,sub004,4,112,218,B,1,0.533393140998669,223.99993662699126,225.0166133629973,225.91906996298349,38,stim,1.0
110,sub004,4,113,220,,,,,,,,blank,1.0
111,sub004,4,114,222,,,,,,,,blank,1.0
112,sub004,4,115,224,,,,,,,,blank,1.0
113,sub004,4,116,226,D,1,0.5667270000558347,231.99999947397737,233.01913712202804,233.9189813620178,39,stim,1.0
114,sub004,4,117,228,,,,,,,,blank,1.0
115,sub004,4,118,230,,,,,,,,blank,1.0
116,sub004,4,119,232,C,1,0.6672831159667112,238.00023842602968,239.0198743910296,239.91900063399225,40,stim,0.0
117,sub004,4,120,234,,,,,,,,blank,0.0
118,sub004,4,121,236,,,,,,,,blank,0.0
119,sub004,4,122,238,A,2,0.46666345302946866,244.00014924799325,245.0189667849918,245.91896841599373,41,stim,1.0
120,sub004,4,123,240,,,,,,,,blank,1.0
121,sub004,4,124,242,,,,,,,,blank,1.0
122,sub004,4,125,244,,,,,,,,blank,1.0
123,sub004,4,126,246,D,2,0.5499082329915836,252.00022133701714,253.0190001379815,253.91902551200474,42,stim,0.0
124,sub004,4,127,248,,,,,,,,blank,0.0
125,sub004,4,128,250,A,1,0.7332443700288422,256.00023903598776,257.0190617709886,257.919076628983,43,stim,0.0
126,sub004,4,129,252,,,,,,,,blank,0.0
127,sub004,4,130,254,,,,,,,,blank,0.0
128,sub004,4,131,256,C,1,0.516748561989516,262.00018194603035,263.01915256801294,263.9191849260242,44,stim,0.0
129,sub004,4,132,258,,,,,,,,blank,0.0
130,sub004,4,133,260,B,1,0.4833276880090125,266.0002250900143,267.0191175190266,267.9191717110225,45,stim,1.0
131,sub004,4,134,262,,,,,,,,blank,1.0
132,sub004,4,135,264,,,,,,,,blank,1.0
133,sub004,4,136,266,C,2,0.5166172919562086,272.00033228402026,273.0193864729954,273.91935113002546,46,stim,1.0
134,sub004,4,137,268,,,,,,,,blank,1.0
135,sub004,4,138,270,B,2,0.46665966999717057,276.0003646510304,277.01940416998696,277.9191877620178,47,stim,0.0
136,sub004,4,139,272,,,,,,,,blank,0.0
137,sub004,4,140,274,,,,,,,,blank,0.0
138,sub004,4,141,276,,,,,,,,blank,0.0
139,sub004,4,142,278,,,,,,,,blank,0.0
140,sub004,4,143,280,,,,,,,,blank,0.0
