,Sub,Run,TR,Onset,Item,Resp,RT,image_on,button_on,button_off,Trial_ID,stim,switchButtonOrientation
0,sub005,8,3,0,,,,,,,,blank,1.0
1,sub005,8,4,2,,,,,,,,blank,1.0
2,sub005,8,5,4,,,,,,,,blank,1.0
3,sub005,8,6,6,A,2,0.5999467119108886,12.000956834992394,13.017630077898502,13.917566373944283,0,stim,1.0
4,sub005,8,7,8,,,,,,,,blank,1.0
5,sub005,8,8,10,,,,,,,,blank,1.0
6,sub005,8,9,12,,,,,,,,blank,1.0
7,sub005,8,10,14,C,2,0.5178721869597211,20.001058512949385,21.020349873928353,21.918910308973864,1,stim,1.0
8,sub005,8,11,16,,,,,,,,blank,1.0
9,sub005,8,12,18,,,,,,,,blank,1.0
10,sub005,8,13,20,A,1,0.44999225006904453,26.003444531932473,27.022241098922677,27.920134543906897,2,stim,0.0
11,sub005,8,14,22,,,,,,,,blank,0.0
12,sub005,8,15,24,B,1,0.4165835599415004,30.00348410999868,31.02235733892303,31.92015918600373,3,stim,1.0
13,sub005,8,16,26,,,,,,,,blank,1.0
14,sub005,8,17,28,,,,,,,,blank,1.0
15,sub005,8,18,30,D,1,0.43332481500692666,36.00354034896009,37.02434343495406,37.92015210795216,4,stim,1.0
16,sub005,8,19,32,,,,,,,,blank,1.0
17,sub005,8,20,34,,,,,,,,blank,1.0
18,sub005,8,21,36,,,,,,,,blank,1.0
19,sub005,8,22,38,A,2,0.5166016410803422,44.00361602392513,45.02253016096074,45.92028933495749,5,stim,1.0
20,sub005,8,23,40,,,,,,,,blank,1.0
21,sub005,8,24,42,D,2,0.5500596959609538,48.00360138295218,49.02276616299059,49.9202897119103,6,stim,0.0
22,sub005,8,25,44,,,,,,,,blank,0.0
23,sub005,8,26,46,B,1,0.466578253894113,52.00370155600831,53.02253806591034,53.920273384894244,7,stim,1.0
24,sub005,8,27,48,,,,,,,,blank,1.0
25,sub005,8,28,50,,,,,,,,blank,1.0
26,sub005,8,29,52,C,1,0.4166873659705743,58.00376032094937,59.02279063896276,59.9203533109976,8,stim,0.0
27,sub005,8,30,54,,,,,,,,blank,0.0
28,sub005,8,31,56,,,,,,,,blank,0.0
29,sub005,8,32,58,B,1,0.4500946350162849,64.00373207393568,65.02267487498466,65.9204826959176,9,stim,1.0
30,sub005,8,33,60,,,,,,,,blank,1.0
31,sub005,8,34,62,,,,,,,,blank,1.0
32,sub005,8,35,64,C,1,0.41664758196566254,70.00381506897975,71.02274790697265,71.92056640400551,10,stim,0.0
33,sub005,8,36,66,,,,,,,,blank,0.0
34,sub005,8,37,68,,,,,,,,blank,0.0
35,sub005,8,38,70,D,1,0.5166424490744248,76.00389116292354,77.02279332699254,77.92053809994832,11,stim,1.0
36,sub005,8,39,72,,,,,,,,blank,1.0
37,sub005,8,40,74,,,,,,,,blank,1.0
38,sub005,8,41,76,C,2,0.716665362007916,82.0039301419165,83.02283206791617,83.92057255096734,12,stim,1.0
39,sub005,8,42,78,,,,,,,,blank,1.0
40,sub005,8,43,80,A,2,0.7999385739676654,86.00400235096458,87.02286986389663,87.92066623095889,13,stim,1.0
41,sub005,8,44,82,,,,,,,,blank,1.0
42,sub005,8,45,84,,,,,,,,blank,1.0
43,sub005,8,46,86,D,2,0.549966145073995,92.00417327391915,93.02373088989407,93.92086412699427,14,stim,0.0
44,sub005,8,47,88,,,,,,,,blank,0.0
45,sub005,8,48,90,,,,,,,,blank,0.0
46,sub005,8,49,92,B,1,0.4334276230074465,98.00405266089365,99.02322027296759,99.92344715597574,15,stim,1.0
47,sub005,8,50,94,,,,,,,,blank,1.0
48,sub005,8,51,96,,,,,,,,blank,1.0
49,sub005,8,52,98,,,,,,,,blank,1.0
50,sub005,8,53,100,A,2,0.5166813730029389,106.00420395098627,107.02326972794253,107.92082016798668,16,stim,1.0
51,sub005,8,54,102,,,,,,,,blank,1.0
52,sub005,8,55,104,D,1,0.5000153759028763,110.00421558599919,111.02329070400447,111.92089725390542,17,stim,1.0
53,sub005,8,56,106,,,,,,,,blank,1.0
54,sub005,8,57,108,,,,,,,,blank,1.0
55,sub005,8,58,110,,,,,,,,blank,1.0
56,sub005,8,59,112,B,1,0.43344534607604146,118.00421462790109,119.02325453294907,119.92100451793522,18,stim,1.0
57,sub005,8,60,114,,,,,,,,blank,1.0
58,sub005,8,61,116,C,2,0.5666605370352045,122.00427165289875,123.02319090696983,123.92099415394478,19,stim,1.0
59,sub005,8,62,118,,,,,,,,blank,1.0
60,sub005,8,63,120,,,,,,,,blank,1.0
61,sub005,8,64,122,,,,,,,,blank,1.0
62,sub005,8,65,124,A,1,0.4833734709536657,130.00438984495122,131.02349866193254,131.9210361680016,20,stim,0.0
63,sub005,8,66,126,,,,,,,,blank,0.0
64,sub005,8,67,128,,,,,,,,blank,0.0
65,sub005,8,68,130,C,1,0.533371303929016,136.0044776709983,137.023528622929,137.92121116700582,21,stim,0.0
66,sub005,8,69,132,,,,,,,,blank,0.0
67,sub005,8,70,134,,,,,,,,blank,0.0
68,sub005,8,71,136,B,2,0.5331886170897633,142.0045958989067,143.0242658589268,143.9212092719972,22,stim,0.0
69,sub005,8,72,138,,,,,,,,blank,0.0
70,sub005,8,73,140,,,,,,,,blank,0.0
71,sub005,8,74,142,D,2,0.5666583010461181,148.00459387490992,149.02344784489833,149.9211882399395,23,stim,0.0
72,sub005,8,75,144,,,,,,,,blank,0.0
73,sub005,8,76,146,,,,,,,,blank,0.0
74,sub005,8,77,148,,,,,,,,blank,0.0
75,sub005,8,78,150,B,2,0.5333803679095581,156.00456575199496,157.02358012192417,157.92132919898722,24,stim,0.0
76,sub005,8,79,152,,,,,,,,blank,0.0
77,sub005,8,80,154,C,1,0.5333977600093931,160.00462112389505,161.02357334794942,161.92133233894128,25,stim,0.0
78,sub005,8,81,156,,,,,,,,blank,0.0
79,sub005,8,82,158,D,2,0.6167301700916141,164.00466178590432,165.02377773995977,165.92131305893417,26,stim,0.0
80,sub005,8,83,160,,,,,,,,blank,0.0
81,sub005,8,84,162,,,,,,,,blank,0.0
82,sub005,8,85,164,,,,,,,,blank,0.0
83,sub005,8,86,166,B,1,0.4666900740703568,172.00476293591782,173.02366854192223,173.9214121439727,27,stim,1.0
84,sub005,8,87,168,,,,,,,,blank,1.0
85,sub005,8,88,170,,,,,,,,blank,1.0
86,sub005,8,89,172,C,2,0.6999838689807802,178.0048472409835,179.02367876900826,179.92144915496465,28,stim,1.0
87,sub005,8,90,174,,,,,,,,blank,1.0
88,sub005,8,91,176,B,2,0.5001111350720748,182.00488295592368,183.02457251795568,183.92157620494254,29,stim,0.0
89,sub005,8,92,178,,,,,,,,blank,0.0
90,sub005,8,93,180,D,1,0.483216283028014,186.00503079593182,187.02458952495363,187.92150212696288,30,stim,1.0
91,sub005,8,94,182,,,,,,,,blank,1.0
92,sub005,8,95,184,A,1,0.4166079399874434,190.00495562597644,191.0238046819577,191.92154034192208,31,stim,0.0
93,sub005,8,96,186,,,,,,,,blank,0.0
94,sub005,8,97,188,,,,,,,,blank,0.0
95,sub005,8,98,190,C,1,0.4499183490406722,196.00500700890552,197.02404965891037,197.92160343495198,32,stim,0.0
96,sub005,8,99,192,,,,,,,,blank,0.0
97,sub005,8,100,194,,,,,,,,blank,0.0
98,sub005,8,101,196,A,1,0.43330690497532487,202.00505713792518,203.02389056095853,203.92166808189359,33,stim,0.0
99,sub005,8,102,198,,,,,,,,blank,0.0
100,sub005,8,103,200,D,2,0.5332408139947802,206.0050976879429,207.02394842694048,207.9217231409857,34,stim,0.0
101,sub005,8,104,202,,,,,,,,blank,0.0
102,sub005,8,105,204,A,2,0.5165910379728302,210.00512811599765,211.02421964495443,211.92186225997284,35,stim,1.0
103,sub005,8,106,206,,,,,,,,blank,1.0
104,sub005,8,107,208,,,,,,,,blank,1.0
105,sub005,8,108,210,C,2,0.7665833769133314,216.005196876009,217.02406964893453,217.92186221992597,36,stim,1.0
106,sub005,8,109,212,,,,,,,,blank,1.0
107,sub005,8,110,214,B,2,0.6333769400371239,220.005167983938,221.02409280696884,221.92188717098907,37,stim,0.0
108,sub005,8,111,216,,,,,,,,blank,0.0
109,sub005,8,112,218,,,,,,,,blank,0.0
110,sub005,8,113,220,D,2,0.5166496019810438,226.00523367500864,227.0241188039072,227.92185937194154,38,stim,0.0
111,sub005,8,114,222,,,,,,,,blank,0.0
112,sub005,8,115,224,B,1,0.5333882400300354,230.00528306595515,231.02501579292584,231.92202447995078,39,stim,1.0
113,sub005,8,116,226,,,,,,,,blank,1.0
114,sub005,8,117,228,C,1,0.466592286946252,234.0054430309683,235.02497857494745,235.92206163296942,40,stim,0.0
115,sub005,8,118,230,,,,,,,,blank,0.0
116,sub005,8,119,232,A,2,0.4833343039499596,238.0053491529543,239.02421979396604,239.92194528295659,41,stim,1.0
117,sub005,8,120,234,,,,,,,,blank,1.0
118,sub005,8,121,236,D,2,0.5000089410459623,242.00540308095515,243.0242856699042,243.92204545496497,42,stim,0.0
119,sub005,8,122,238,,,,,,,,blank,0.0
120,sub005,8,123,240,,,,,,,,blank,0.0
121,sub005,8,124,242,,,,,,,,blank,0.0
122,sub005,8,125,244,A,2,0.5666833180002868,250.00537495897152,251.0243506449042,251.9221623179037,43,stim,1.0
123,sub005,8,126,246,,,,,,,,blank,1.0
124,sub005,8,127,248,,,,,,,,blank,1.0
125,sub005,8,128,250,,,,,,,,blank,1.0
126,sub005,8,129,252,B,2,0.4833684329641983,258.00550571095664,259.02441756695043,259.92214525397867,44,stim,0.0
127,sub005,8,130,254,,,,,,,,blank,0.0
128,sub005,8,131,256,A,2,0.5000081629259512,262.0055611609714,263.02444361092057,263.92221320595127,45,stim,1.0
129,sub005,8,132,258,,,,,,,,blank,1.0
130,sub005,8,133,260,,,,,,,,blank,1.0
131,sub005,8,134,262,,,,,,,,blank,1.0
132,sub005,8,135,264,D,2,0.58341250999365,270.0055271239253,271.02469394996297,271.92224008392077,46,stim,0.0
133,sub005,8,136,266,,,,,,,,blank,0.0
134,sub005,8,137,268,,,,,,,,blank,0.0
135,sub005,8,138,270,C,2,0.5666711690137163,276.00559916195925,277.0247416769853,277.92236118693836,47,stim,1.0
136,sub005,8,139,272,,,,,,,,blank,1.0
137,sub005,8,140,274,,,,,,,,blank,1.0
138,sub005,8,141,276,,,,,,,,blank,1.0
139,sub005,8,142,278,,,,,,,,blank,1.0
140,sub005,8,143,280,,,,,,,,blank,1.0
