,Sub,Run,TR,Onset,Item,Resp,RT,image_on,button_on,button_off,Trial_ID,stim,switchButtonOrientation
0,sub005,1,3,0,,,,,,,,blank,1.0
1,sub005,1,4,2,,,,,,,,blank,1.0
2,sub005,1,5,4,,,,,,,,blank,1.0
3,sub005,1,6,6,B,2,0.766626522061415,12.009653560002334,13.02923045901116,13.9262909659883,0,stim,0.0
4,sub005,1,7,8,,,,,,,,blank,0.0
5,sub005,1,8,10,,,,,,,,blank,0.0
6,sub005,1,9,12,D,2,0.6166210270021111,18.009678611997515,19.029368276009336,19.92629398405552,1,stim,0.0
7,sub005,1,10,14,,,,,,,,blank,0.0
8,sub005,1,11,16,,,,,,,,blank,0.0
9,sub005,1,12,18,C,1,0.5000202929368243,24.00967813504394,25.02933347108774,25.92640490201302,2,stim,0.0
10,sub005,1,13,20,,,,,,,,blank,0.0
11,sub005,1,14,22,,,,,,,,blank,0.0
12,sub005,1,15,24,A,1,0.6025506790028885,30.00970049703028,31.029496496077627,31.926323753083125,3,stim,0.0
13,sub005,1,16,26,,,,,,,,blank,0.0
14,sub005,1,17,28,B,1,0.6999222899321467,34.00973554805387,35.029401434003375,35.92631867597811,4,stim,1.0
15,sub005,1,18,30,,,,,,,,blank,1.0
16,sub005,1,19,32,,,,,,,,blank,1.0
17,sub005,1,20,34,D,1,0.6333611300215125,40.00966200407129,41.02858455805108,41.92636586399749,5,stim,1.0
18,sub005,1,21,36,,,,,,,,blank,1.0
19,sub005,1,22,38,,,,,,,,blank,1.0
20,sub005,1,23,40,A,2,0.5166183250257745,46.009724605013616,47.02862947201356,47.9264085420873,6,stim,1.0
21,sub005,1,24,42,,,,,,,,blank,1.0
22,sub005,1,25,44,B,2,0.8499847699422389,50.00970825809054,51.02863977907691,51.92642693198286,7,stim,0.0
23,sub005,1,26,46,,,,,,,,blank,0.0
24,sub005,1,27,48,,,,,,,,blank,0.0
25,sub005,1,28,50,C,,,56.00973041600082,57.028712664032355,57.92645064601675,8,stim,1.0
26,sub005,1,29,52,,2,1.83343038498424,,,,,blank,1.0
27,sub005,1,30,54,D,2,0.5999627209967002,60.00984687008895,61.028682474046946,61.92641574807931,9,stim,0.0
28,sub005,1,31,56,,,,,,,,blank,0.0
29,sub005,1,32,58,,,,,,,,blank,0.0
30,sub005,1,33,60,C,2,0.4832473039859906,66.00986631505657,67.02889451605733,67.92648382403422,10,stim,1.0
31,sub005,1,34,62,,,,,,,,blank,1.0
32,sub005,1,35,64,A,2,0.5166702349670231,70.00988142704591,71.02892027201597,71.92646449198946,11,stim,1.0
33,sub005,1,36,66,,,,,,,,blank,1.0
34,sub005,1,37,68,D,1,0.4999818180222064,74.00990961503703,75.02874765300658,75.92649090208579,12,stim,1.0
35,sub005,1,38,70,,,,,,,,blank,1.0
36,sub005,1,39,72,,,,,,,,blank,1.0
37,sub005,1,40,74,,,,,,,,blank,1.0
38,sub005,1,41,76,A,1,0.4998356429859996,82.01004841108806,83.02885058708489,83.92667263303883,13,stim,0.0
39,sub005,1,42,78,,,,,,,,blank,0.0
40,sub005,1,43,80,D,2,0.8334022359922528,86.00990372803062,87.02886356099043,87.9266329020029,14,stim,0.0
41,sub005,1,44,82,,,,,,,,blank,0.0
42,sub005,1,45,84,,,,,,,,blank,0.0
43,sub005,1,46,86,C,1,0.5167492319596931,92.00992261408828,93.0289057000773,93.92668225802481,15,stim,0.0
44,sub005,1,47,88,,,,,,,,blank,0.0
45,sub005,1,48,90,B,2,0.4833243739558384,96.00996455107816,97.0288722399855,97.92662080097944,16,stim,0.0
46,sub005,1,49,92,,,,,,,,blank,0.0
47,sub005,1,50,94,,,,,,,,blank,0.0
48,sub005,1,51,96,,,,,,,,blank,0.0
49,sub005,1,52,98,D,1,0.7167628579773009,104.00999377702828,105.02896085497923,105.92675775301177,17,stim,1.0
50,sub005,1,53,100,,,,,,,,blank,1.0
51,sub005,1,54,102,,,,,,,,blank,1.0
52,sub005,1,55,104,,,,,,,,blank,1.0
53,sub005,1,56,106,B,2,0.4499265910126269,112.01013036607765,113.02900271001272,113.92673697602004,18,stim,0.0
54,sub005,1,57,108,,,,,,,,blank,0.0
55,sub005,1,58,110,,,,,,,,blank,0.0
56,sub005,1,59,112,,,,,,,,blank,0.0
57,sub005,1,60,114,A,1,0.5667095420649275,120.0100911760237,121.02929076505825,121.92684686707798,19,stim,0.0
58,sub005,1,61,116,,,,,,,,blank,0.0
59,sub005,1,62,118,,,,,,,,blank,0.0
60,sub005,1,63,120,B,2,0.4666761859552935,126.01030758803245,127.02989054401405,127.92695679701865,20,stim,0.0
61,sub005,1,64,122,,,,,,,,blank,0.0
62,sub005,1,65,124,C,2,0.883320995955728,130.01034584105946,131.02989557001274,131.92991013103165,21,stim,1.0
63,sub005,1,66,126,,,,,,,,blank,1.0
64,sub005,1,67,128,A,1,0.4666934320703149,134.01024338800926,135.0291678099893,135.9269066019915,22,stim,0.0
65,sub005,1,68,130,,,,,,,,blank,0.0
66,sub005,1,69,132,,,,,,,,blank,0.0
67,sub005,1,70,134,C,2,0.6500263779889792,140.01027033501305,141.0292175130453,141.92688569705933,23,stim,1.0
68,sub005,1,71,136,,,,,,,,blank,1.0
69,sub005,1,72,138,,,,,,,,blank,1.0
70,sub005,1,73,140,,,,,,,,blank,1.0
71,sub005,1,74,142,B,1,0.5167910900199786,148.010263580014,149.0292233870132,149.92694671906065,24,stim,1.0
72,sub005,1,75,144,,,,,,,,blank,1.0
73,sub005,1,76,146,C,2,0.9357033630367368,152.01037466700654,153.02923754800577,153.92702926602215,25,stim,1.0
74,sub005,1,77,148,,,,,,,,blank,1.0
75,sub005,1,78,150,A,,,156.0104133480927,157.02929618302733,157.92705735005438,26,stim,1.0
76,sub005,1,79,152,,2,1.1499339569127187,,,,,blank,1.0
77,sub005,1,80,154,,,,,,,,blank,1.0
78,sub005,1,81,156,B,2,0.4833533719647676,162.01043036708143,163.02928645105567,163.92702586809173,27,stim,0.0
79,sub005,1,82,158,,,,,,,,blank,0.0
80,sub005,1,83,160,,,,,,,,blank,0.0
81,sub005,1,84,162,D,2,0.516668199095875,168.01046963699628,169.02952790807467,169.92706279503182,28,stim,0.0
82,sub005,1,85,164,,,,,,,,blank,0.0
83,sub005,1,86,166,A,2,0.48321654193568975,172.01061559305526,173.03013688803185,173.9270810430171,29,stim,1.0
84,sub005,1,87,168,,,,,,,,blank,1.0
85,sub005,1,88,170,,,,,,,,blank,1.0
86,sub005,1,89,172,,,,,,,,blank,1.0
87,sub005,1,90,174,C,2,0.6667368359630927,180.01049573603086,181.02945379307494,181.92722569801845,30,stim,1.0
88,sub005,1,91,176,,,,,,,,blank,1.0
89,sub005,1,92,178,A,1,0.49994496698491275,184.0105344490148,185.0294793409994,185.92722110799514,31,stim,0.0
90,sub005,1,93,180,,,,,,,,blank,0.0
91,sub005,1,94,182,,,,,,,,blank,0.0
92,sub005,1,95,184,D,1,0.4999340269714594,190.01060671103187,191.02948319609277,191.92726878798567,32,stim,1.0
93,sub005,1,96,186,,,,,,,,blank,1.0
94,sub005,1,97,188,,,,,,,,blank,1.0
95,sub005,1,98,190,C,2,0.6332224630750716,196.0106666199863,197.02948844397906,197.9272470549913,33,stim,1.0
96,sub005,1,99,192,,,,,,,,blank,1.0
97,sub005,1,100,194,B,2,0.5332431129645556,200.01067336602136,201.02950339007657,201.9272971530445,34,stim,0.0
98,sub005,1,101,196,,,,,,,,blank,0.0
99,sub005,1,102,198,,,,,,,,blank,0.0
100,sub005,1,103,200,,,,,,,,blank,0.0
101,sub005,1,104,202,D,1,0.8000244710128754,208.01069155102596,209.0295736960834,209.9273199350573,35,stim,1.0
102,sub005,1,105,204,,,,,,,,blank,1.0
103,sub005,1,106,206,,,,,,,,blank,1.0
104,sub005,1,107,208,A,1,0.45008008007425815,214.01066850800999,215.02957533102017,215.9275208930485,36,stim,0.0
105,sub005,1,108,210,,,,,,,,blank,0.0
106,sub005,1,109,212,,,,,,,,blank,0.0
107,sub005,1,110,214,D,1,0.5499100469751284,220.01091274700593,221.03056559199467,221.92750100500416,37,stim,1.0
108,sub005,1,111,216,,,,,,,,blank,1.0
109,sub005,1,112,218,,,,,,,,blank,1.0
110,sub005,1,113,220,C,2,0.46672421297989786,226.01087476604152,227.03048356005456,227.9275284879841,38,stim,1.0
111,sub005,1,114,222,,,,,,,,blank,1.0
112,sub005,1,115,224,B,1,0.4998979789670557,230.01086366607342,231.0296998290578,231.9275006080279,39,stim,1.0
113,sub005,1,116,226,,,,,,,,blank,1.0
114,sub005,1,117,228,,,,,,,,blank,1.0
115,sub005,1,118,230,A,1,0.4332541299518198,236.01088388904463,237.02999959001318,237.92754806601442,40,stim,0.0
116,sub005,1,119,232,,,,,,,,blank,0.0
117,sub005,1,120,234,D,1,0.8359900210052729,240.0108615080826,241.03006445907522,241.92754959408194,41,stim,1.0
118,sub005,1,121,236,,,,,,,,blank,1.0
119,sub005,1,122,238,B,2,0.7000093300594017,244.01090953301173,245.0297746870201,245.92751273303293,42,stim,0.0
120,sub005,1,123,240,,,,,,,,blank,0.0
121,sub005,1,124,242,,,,,,,,blank,0.0
122,sub005,1,125,244,D,2,0.46657501300796866,250.01096685405355,251.02980726398528,251.92757394898217,43,stim,0.0
123,sub005,1,126,246,,,,,,,,blank,0.0
124,sub005,1,127,248,B,2,0.716653177049011,254.01099983300082,255.02982864598744,255.92756869399454,44,stim,0.0
125,sub005,1,128,250,,,,,,,,blank,0.0
126,sub005,1,129,252,,,,,,,,blank,0.0
127,sub005,1,130,254,,,,,,,,blank,0.0
128,sub005,1,131,256,C,,,262.01101983198896,263.0308583850274,263.92762711504474,45,stim,1.0
129,sub005,1,132,258,,,,,,,,blank,1.0
130,sub005,1,133,260,,,,,,,,blank,1.0
131,sub005,1,134,262,,,,,,,,blank,1.0
132,sub005,1,135,264,A,,,270.0110705069965,271.0300325230928,271.92774963506963,46,stim,0.0
133,sub005,1,136,266,,1,1.1499629350146279,,,,,blank,0.0
134,sub005,1,137,268,C,,,274.011031407048,275.0299888550071,275.9277521430049,47,stim,0.0
135,sub005,1,138,270,,1,1.11936649994459,,,,,blank,0.0
136,sub005,1,139,272,,,,,,,,blank,0.0
137,sub005,1,140,274,,,,,,,,blank,0.0
138,sub005,1,141,276,,,,,,,,blank,0.0
139,sub005,1,142,278,,,,,,,,blank,0.0
