,Sub,Run,TR,Onset,Item,Resp,RT,image_on,button_on,button_off,Trial_ID,stim,switchButtonOrientation
0,sub005,5,3,0,,,,,,,,blank,1.0
1,sub005,5,4,2,,,,,,,,blank,1.0
2,sub005,5,5,4,,,,,,,,blank,1.0
3,sub005,5,6,6,D,1,0.5664597160648555,12.002778474939987,13.019305396010168,13.919242403004318,0,stim,1.0
4,sub005,5,7,8,,,,,,,,blank,1.0
5,sub005,5,8,10,B,2,0.46647367300465703,16.002801188034937,17.019349746988155,17.91927420103457,1,stim,0.0
6,sub005,5,9,12,,,,,,,,blank,0.0
7,sub005,5,10,14,,,,,,,,blank,0.0
8,sub005,5,11,16,C,1,0.6475911110173911,22.007380635943264,23.022011543042026,23.92163152701687,2,stim,0.0
9,sub005,5,12,18,,,,,,,,blank,0.0
10,sub005,5,13,20,,,,,,,,blank,0.0
11,sub005,5,14,22,D,2,0.531167512992397,28.00728810497094,29.02193419903051,29.92179039993789,3,stim,0.0
12,sub005,5,15,24,,,,,,,,blank,0.0
13,sub005,5,16,26,A,2,0.5643991068936884,32.00731729203835,33.02197428198997,33.921693659969606,4,stim,1.0
14,sub005,5,17,28,,,,,,,,blank,1.0
15,sub005,5,18,30,D,2,0.48098772298544645,36.007510469993576,37.022236344986595,37.921730538946576,5,stim,0.0
16,sub005,5,19,32,,,,,,,,blank,0.0
17,sub005,5,20,34,A,1,0.4644292669836432,40.00739247596357,41.0222581489943,41.92181035701651,6,stim,0.0
18,sub005,5,21,36,,,,,,,,blank,0.0
19,sub005,5,22,38,B,2,0.43100654100999236,44.00745294196531,45.02212044794578,45.9218505769968,7,stim,0.0
20,sub005,5,23,40,,,,,,,,blank,0.0
21,sub005,5,24,42,,,,,,,,blank,0.0
22,sub005,5,25,44,,,,,,,,blank,0.0
23,sub005,5,26,46,C,1,0.5144550520926714,52.007437804946676,53.022144171991386,53.921867368975654,8,stim,0.0
24,sub005,5,27,48,,,,,,,,blank,0.0
25,sub005,5,28,50,B,2,0.5303888929774985,56.00821872195229,57.02487793995533,57.92193624097854,9,stim,0.0
26,sub005,5,29,52,,,,,,,,blank,0.0
27,sub005,5,30,54,,,,,,,,blank,0.0
28,sub005,5,31,56,,,,,,,,blank,0.0
29,sub005,5,32,58,A,2,0.5309449170017615,64.00772037298884,65.02269196102861,65.92201139696408,10,stim,1.0
30,sub005,5,33,60,,,,,,,,blank,1.0
31,sub005,5,34,62,,,,,,,,blank,1.0
32,sub005,5,35,64,C,2,0.6644869489828125,70.00760340003762,71.02226571994834,71.92197047302034,11,stim,1.0
33,sub005,5,36,66,,,,,,,,blank,1.0
34,sub005,5,37,68,,,,,,,,blank,1.0
35,sub005,5,38,70,A,1,0.48097526596393436,76.00776614400093,77.02240190899465,77.92202646099031,12,stim,0.0
36,sub005,5,39,72,,,,,,,,blank,0.0
37,sub005,5,40,74,,,,,,,,blank,0.0
38,sub005,5,41,76,B,1,0.5474705590168014,82.00801395298913,83.02469272702001,83.92224849504419,13,stim,1.0
39,sub005,5,42,78,,,,,,,,blank,1.0
40,sub005,5,43,80,D,2,0.4971016750205308,86.00837968301494,87.0247112410143,87.9220673009986,14,stim,0.0
41,sub005,5,44,82,,,,,,,,blank,0.0
42,sub005,5,45,84,C,1,0.41448623908217996,90.00769494695123,91.02433325594757,91.92210821993649,15,stim,0.0
43,sub005,5,46,86,,,,,,,,blank,0.0
44,sub005,5,47,88,,,,,,,,blank,0.0
45,sub005,5,48,90,B,1,0.48112738295458257,96.00774521799758,97.02435295900796,97.9221676189918,16,stim,1.0
46,sub005,5,49,92,,,,,,,,blank,1.0
47,sub005,5,50,94,,,,,,,,blank,1.0
48,sub005,5,51,96,C,1,0.6145000960677862,102.00777435896453,103.02264605998062,103.92226941802073,17,stim,0.0
49,sub005,5,52,98,,,,,,,,blank,0.0
50,sub005,5,53,100,A,2,0.581155237974599,106.00779138703365,107.02271292998921,107.9222192990128,18,stim,1.0
51,sub005,5,54,102,,,,,,,,blank,1.0
52,sub005,5,55,104,C,1,0.4644347260473296,110.00786508899182,111.02278918598313,111.92227341898251,19,stim,0.0
53,sub005,5,56,106,,,,,,,,blank,0.0
54,sub005,5,57,108,D,1,0.4976890810066834,114.00789534195792,115.02457282901742,115.92232646699995,20,stim,1.0
55,sub005,5,58,110,,,,,,,,blank,1.0
56,sub005,5,59,112,,,,,,,,blank,1.0
57,sub005,5,60,114,,,,,,,,blank,1.0
58,sub005,5,61,116,B,1,0.41451043891720474,122.00788607203867,123.02257971500512,123.92234643199481,21,stim,1.0
59,sub005,5,62,118,,,,,,,,blank,1.0
60,sub005,5,63,120,,,,,,,,blank,1.0
61,sub005,5,64,122,,,,,,,,blank,1.0
62,sub005,5,65,124,D,2,0.44789428904186934,130.0080094509758,131.02450215897989,131.92256533598993,22,stim,0.0
63,sub005,5,66,126,,,,,,,,blank,0.0
64,sub005,5,67,128,,,,,,,,blank,0.0
65,sub005,5,68,130,A,2,0.5477553699165583,136.00804530503228,137.02287211094517,137.9225033710245,23,stim,1.0
66,sub005,5,69,132,,,,,,,,blank,1.0
67,sub005,5,70,134,,,,,,,,blank,1.0
68,sub005,5,71,136,B,2,0.5308958800742403,142.00822928594425,143.0227819699794,143.92247660795692,24,stim,0.0
69,sub005,5,72,138,,,,,,,,blank,0.0
70,sub005,5,73,140,,,,,,,,blank,0.0
71,sub005,5,74,142,,,,,,,,blank,0.0
72,sub005,5,75,144,C,1,0.7644013370154426,150.00812021200545,151.02287090197206,151.9225993680302,25,stim,0.0
73,sub005,5,76,146,,,,,,,,blank,0.0
74,sub005,5,77,148,,,,,,,,blank,0.0
75,sub005,5,78,150,A,2,0.5478060269961134,156.0081705340417,157.02282196702436,157.92262148100417,26,stim,1.0
76,sub005,5,79,152,,,,,,,,blank,1.0
77,sub005,5,80,154,,,,,,,,blank,1.0
78,sub005,5,81,156,D,2,0.6477778849657625,162.00820672500413,163.02303607098293,163.92264924396295,27,stim,0.0
79,sub005,5,82,158,,,,,,,,blank,0.0
80,sub005,5,83,160,,,,,,,,blank,0.0
81,sub005,5,84,162,,,,,,,,blank,0.0
82,sub005,5,85,164,C,2,0.5811571979429573,170.00820128200576,171.02293596498203,171.9226634450024,28,stim,1.0
83,sub005,5,86,166,,,,,,,,blank,1.0
84,sub005,5,87,168,A,1,0.6310975649394095,174.0082877780078,175.02512414194643,175.92272337595932,29,stim,0.0
85,sub005,5,88,170,,,,,,,,blank,0.0
86,sub005,5,89,172,D,2,0.6634998000226915,178.00926942494698,179.0247370370198,179.922751392005,30,stim,0.0
87,sub005,5,90,174,,,,,,,,blank,0.0
88,sub005,5,91,176,,,,,,,,blank,0.0
89,sub005,5,92,178,C,1,0.4977519370149821,184.00837163696997,185.02303136500996,185.92274341895245,31,stim,0.0
90,sub005,5,93,180,,,,,,,,blank,0.0
91,sub005,5,94,182,,,,,,,,blank,0.0
92,sub005,5,95,184,,,,,,,,blank,0.0
93,sub005,5,96,186,B,2,0.49754014995414764,192.0085803050315,193.02308209904004,193.92287129804026,32,stim,0.0
94,sub005,5,97,188,,,,,,,,blank,0.0
95,sub005,5,98,190,D,1,0.4809098830446601,196.0085572799435,197.02307179395575,197.92283046303783,33,stim,1.0
96,sub005,5,99,192,,,,,,,,blank,1.0
97,sub005,5,100,194,,,,,,,,blank,1.0
98,sub005,5,101,196,B,1,0.5977928350912407,202.00842929794453,203.02332254394423,203.9229474220192,34,stim,1.0
99,sub005,5,102,198,,,,,,,,blank,1.0
100,sub005,5,103,200,A,2,0.4477541050873697,206.00846671394538,207.0233293279307,207.92286139493808,35,stim,1.0
101,sub005,5,104,202,,,,,,,,blank,1.0
102,sub005,5,105,204,D,2,0.4976438219891861,210.00867646804545,211.02319086401258,211.92288238194305,36,stim,0.0
103,sub005,5,106,206,,,,,,,,blank,0.0
104,sub005,5,107,208,,,,,,,,blank,0.0
105,sub005,5,108,210,A,1,0.43093009700533,216.00867919903249,217.02316825895105,217.9229545709677,37,stim,0.0
106,sub005,5,109,212,,,,,,,,blank,0.0
107,sub005,5,110,214,,,,,,,,blank,0.0
108,sub005,5,111,216,,,,,,,,blank,0.0
109,sub005,5,112,218,C,,,224.00886496598832,225.02498719503637,225.9231597619364,38,stim,1.0
110,sub005,5,113,220,,,,,,,,blank,1.0
111,sub005,5,114,222,,,,,,,,blank,1.0
112,sub005,5,115,224,,,,,,,,blank,1.0
113,sub005,5,116,226,A,1,0.4811284600291401,232.00866808998398,233.02379115100484,233.92310755094513,39,stim,0.0
114,sub005,5,117,228,,,,,,,,blank,0.0
115,sub005,5,118,230,,,,,,,,blank,0.0
116,sub005,5,119,232,D,1,0.5975718239787966,238.0088925389573,239.0233970619738,239.92314264096785,40,stim,1.0
117,sub005,5,120,234,,,,,,,,blank,1.0
118,sub005,5,121,236,,,,,,,,blank,1.0
119,sub005,5,122,238,,,,,,,,blank,1.0
120,sub005,5,123,240,B,1,0.5476371090626344,246.00889912596904,247.02362713497132,247.92323377495632,41,stim,1.0
121,sub005,5,124,242,,,,,,,,blank,1.0
122,sub005,5,125,244,,,,,,,,blank,1.0
123,sub005,5,126,246,C,1,0.547558226971887,252.00901254301425,253.023468245985,253.9232453360455,42,stim,0.0
124,sub005,5,127,248,,,,,,,,blank,0.0
125,sub005,5,128,250,,,,,,,,blank,0.0
126,sub005,5,129,252,D,2,0.48091600206680596,258.00900224095676,259.0235224319622,259.92328243202064,43,stim,0.0
127,sub005,5,130,254,,,,,,,,blank,0.0
128,sub005,5,131,256,,,,,,,,blank,0.0
129,sub005,5,132,258,A,1,0.4310312510933727,264.0088753949385,265.02373389399145,265.92325588001404,44,stim,0.0
130,sub005,5,133,260,,,,,,,,blank,0.0
131,sub005,5,134,262,B,1,0.4141613299725577,268.00910501298495,269.0256180999568,269.9233306440292,45,stim,1.0
132,sub005,5,135,264,,,,,,,,blank,1.0
133,sub005,5,136,266,,,,,,,,blank,1.0
134,sub005,5,137,268,C,1,0.6311312760226429,274.0089163070079,275.02378214302007,275.9233701110352,46,stim,0.0
135,sub005,5,138,270,,,,,,,,blank,0.0
136,sub005,5,139,272,B,2,0.614405172993429,278.00898830394726,279.023883429938,279.9233633360127,47,stim,0.0
137,sub005,5,140,274,,,,,,,,blank,0.0
138,sub005,5,141,276,,,,,,,,blank,0.0
139,sub005,5,142,278,,,,,,,,blank,0.0
140,sub005,5,143,280,,,,,,,,blank,0.0
