,Sub,Run,TR,Onset,Item,Resp,RT,image_on,button_on,button_off,Trial_ID,stim,switchButtonOrientation
0,sub005,4,3,0,,,,,,,,blank,0.0
1,sub005,4,4,2,,,,,,,,blank,0.0
2,sub005,4,5,4,,,,,,,,blank,0.0
3,sub005,4,6,6,A,2,0.6500071389600635,12.003578449017368,13.020323475939222,13.92025212594308,0,stim,1.0
4,sub005,4,7,8,,,,,,,,blank,1.0
5,sub005,4,8,10,,,,,,,,blank,1.0
6,sub005,4,9,12,B,1,0.500006134971045,18.003627032972872,19.02054039493669,19.92030794697348,1,stim,1.0
7,sub005,4,10,14,,,,,,,,blank,1.0
8,sub005,4,11,16,C,2,0.5510299199959263,22.004939800011925,23.02484772691969,23.922640068922192,2,stim,1.0
9,sub005,4,12,18,,,,,,,,blank,1.0
10,sub005,4,13,20,D,1,0.5999986509559676,26.006097679957747,27.02496159193106,27.922668668907136,3,stim,1.0
11,sub005,4,14,22,,,,,,,,blank,1.0
12,sub005,4,15,24,,,,,,,,blank,1.0
13,sub005,4,16,26,,,,,,,,blank,1.0
14,sub005,4,17,28,C,2,0.5500814309343696,34.006188018014655,35.02586777496617,35.922949882922694,4,stim,1.0
15,sub005,4,18,30,,,,,,,,blank,1.0
16,sub005,4,19,32,,,,,,,,blank,1.0
17,sub005,4,20,34,A,1,0.5833484000759199,40.00622164492961,41.02593415300362,41.9229994189227,5,stim,0.0
18,sub005,4,21,36,,,,,,,,blank,0.0
19,sub005,4,22,38,,,,,,,,blank,0.0
20,sub005,4,23,40,D,,,46.00633762893267,47.02598437992856,47.923010085942224,6,stim,1.0
21,sub005,4,24,42,,1,1.0196491159731522,,,,,blank,1.0
22,sub005,4,25,44,,,,,,,,blank,1.0
23,sub005,4,26,46,C,2,0.48330146400257945,52.00635750393849,53.02593315800186,53.92299416696187,7,stim,1.0
24,sub005,4,27,48,,,,,,,,blank,1.0
25,sub005,4,28,50,B,2,0.4999919969122857,56.00634483201429,57.02596722601447,57.92309758695774,8,stim,0.0
26,sub005,4,29,52,,,,,,,,blank,0.0
27,sub005,4,30,54,,,,,,,,blank,0.0
28,sub005,4,31,56,D,1,0.5999869889346883,62.00635030900594,63.02524749701843,63.92292325897142,9,stim,1.0
29,sub005,4,32,58,,,,,,,,blank,1.0
30,sub005,4,33,60,,,,,,,,blank,1.0
31,sub005,4,34,62,A,1,0.516678745043464,68.00635914492887,69.02522564202081,69.92299314693082,10,stim,0.0
32,sub005,4,35,64,,,,,,,,blank,0.0
33,sub005,4,36,66,,,,,,,,blank,0.0
34,sub005,4,37,68,B,2,0.5167644120519981,74.00632880895864,75.02524630900007,75.92306141695008,11,stim,0.0
35,sub005,4,38,70,,,,,,,,blank,0.0
36,sub005,4,39,72,,,,,,,,blank,0.0
37,sub005,4,40,74,,,,,,,,blank,0.0
38,sub005,4,41,76,D,1,0.4499484490370378,82.00656882696785,83.02616026601754,83.92321476200595,12,stim,1.0
39,sub005,4,42,78,,,,,,,,blank,1.0
40,sub005,4,43,80,,,,,,,,blank,1.0
41,sub005,4,44,82,C,,,88.00662850390654,89.02619316894561,89.92320286796894,13,stim,1.0
42,sub005,4,45,84,,2,1.0666691610822454,,,,,blank,1.0
43,sub005,4,46,86,,,,,,,,blank,1.0
44,sub005,4,47,88,A,1,0.4499458170030266,94.0066452230094,95.02636499900836,95.92326500394847,14,stim,0.0
45,sub005,4,48,90,,,,,,,,blank,0.0
46,sub005,4,49,92,,,,,,,,blank,0.0
47,sub005,4,50,94,,,,,,,,blank,0.0
48,sub005,4,51,96,D,2,0.7166696820640936,102.00670122692827,103.02639234194066,103.9233126649633,15,stim,0.0
49,sub005,4,52,98,,,,,,,,blank,0.0
50,sub005,4,53,100,,,,,,,,blank,0.0
51,sub005,4,54,102,,,,,,,,blank,0.0
52,sub005,4,55,104,A,1,0.5360062549589202,110.00660580501426,111.02551899291575,111.92326557892375,16,stim,0.0
53,sub005,4,56,106,,,,,,,,blank,0.0
54,sub005,4,57,108,C,2,0.8999056610045955,114.00668821495492,115.02560220099986,115.9255026190076,17,stim,1.0
55,sub005,4,58,110,,,,,,,,blank,1.0
56,sub005,4,59,112,,,,,,,,blank,1.0
57,sub005,4,60,114,B,1,0.5166196440113708,120.00669013592415,121.02578013401944,121.9234000799479,18,stim,1.0
58,sub005,4,61,116,,,,,,,,blank,1.0
59,sub005,4,62,118,,,,,,,,blank,1.0
60,sub005,4,63,120,,,,,,,,blank,1.0
61,sub005,4,64,122,D,1,0.7000260830391198,128.0068551049335,129.02642969496083,129.92348838597536,19,stim,1.0
62,sub005,4,65,124,,,,,,,,blank,1.0
63,sub005,4,66,126,,,,,,,,blank,1.0
64,sub005,4,67,128,A,1,0.5166061169002205,134.00691907701548,135.02648887201212,135.92353517899755,20,stim,0.0
65,sub005,4,68,130,,,,,,,,blank,0.0
66,sub005,4,69,132,,,,,,,,blank,0.0
67,sub005,4,70,134,B,1,0.4834200219484046,140.00688222097233,141.02667019201908,141.92363419593312,21,stim,1.0
68,sub005,4,71,136,,,,,,,,blank,1.0
69,sub005,4,72,138,,,,,,,,blank,1.0
70,sub005,4,73,140,C,2,0.5333412630716339,146.00691600691061,147.02672289591283,147.92365212494042,22,stim,1.0
71,sub005,4,74,142,,,,,,,,blank,1.0
72,sub005,4,75,144,,,,,,,,blank,1.0
73,sub005,4,76,146,,,,,,,,blank,1.0
74,sub005,4,77,148,B,2,0.5000175280729309,154.0070279649226,155.02673511300236,155.9235864939401,23,stim,0.0
75,sub005,4,78,150,,,,,,,,blank,0.0
76,sub005,4,79,152,D,1,0.49999388691503555,158.00696435500868,159.025861708913,159.92354960099328,24,stim,1.0
77,sub005,4,80,154,,,,,,,,blank,1.0
78,sub005,4,81,156,,,,,,,,blank,1.0
79,sub005,4,82,158,,,,,,,,blank,1.0
80,sub005,4,83,160,C,,,166.00691682996694,167.02586390194483,167.92369123990647,25,stim,1.0
81,sub005,4,84,162,,2,1.0358339350204915,,,,,blank,1.0
82,sub005,4,85,164,,,,,,,,blank,1.0
83,sub005,4,86,166,D,1,0.5500995919574052,172.0070770289749,173.0269040799467,173.92381735390518,26,stim,1.0
84,sub005,4,87,168,,,,,,,,blank,1.0
85,sub005,4,88,170,A,1,0.6832943119807169,176.0072210689541,177.02674994594418,177.9237751669716,27,stim,0.0
86,sub005,4,89,172,,,,,,,,blank,0.0
87,sub005,4,90,174,,,,,,,,blank,0.0
88,sub005,4,91,176,B,1,0.5833632739959285,182.00720533297863,183.02679983596317,183.9238421790069,28,stim,1.0
89,sub005,4,92,178,,,,,,,,blank,1.0
90,sub005,4,93,180,,,,,,,,blank,1.0
91,sub005,4,94,182,,,,,,,,blank,1.0
92,sub005,4,95,184,C,2,0.5500725649762899,190.00708174193278,191.02625678793993,191.9238442069618,29,stim,1.0
93,sub005,4,96,186,,,,,,,,blank,1.0
94,sub005,4,97,188,B,1,0.4999832479516044,194.00720722798724,195.0260363779962,195.92376704490744,30,stim,1.0
95,sub005,4,98,190,,,,,,,,blank,1.0
96,sub005,4,99,192,A,2,0.6999405800597742,198.00719069794286,199.0262658339925,199.9238793469267,31,stim,1.0
97,sub005,4,100,194,,,,,,,,blank,1.0
98,sub005,4,101,196,B,2,0.8166720189619809,202.00724597799126,203.0261272599455,203.9238899779739,32,stim,0.0
99,sub005,4,102,198,,,,,,,,blank,0.0
100,sub005,4,103,200,A,2,0.4999068279284984,206.00727999501396,207.0264049769612,207.9239433699986,33,stim,1.0
101,sub005,4,104,202,,,,,,,,blank,1.0
102,sub005,4,105,204,D,1,0.5166042889468372,210.00727130298037,211.0261848209193,211.9239199809963,34,stim,1.0
103,sub005,4,106,206,,,,,,,,blank,1.0
104,sub005,4,107,208,,,,,,,,blank,1.0
105,sub005,4,108,210,,,,,,,,blank,1.0
106,sub005,4,109,212,C,1,0.5500891209812835,218.00736715400126,219.027177416021,219.92417614301667,35,stim,0.0
107,sub005,4,110,214,,,,,,,,blank,0.0
108,sub005,4,111,216,A,2,0.5499339239904657,222.00747417798266,223.02703672100324,223.92406686092727,36,stim,1.0
109,sub005,4,112,218,,,,,,,,blank,1.0
110,sub005,4,113,220,D,1,0.7166295159840956,226.00754381692968,227.02707490697503,227.92409735592082,37,stim,1.0
111,sub005,4,114,222,,,,,,,,blank,1.0
112,sub005,4,115,224,,,,,,,,blank,1.0
113,sub005,4,116,226,B,1,0.6165876549202949,232.0075523100095,233.02729875291698,233.92423319397494,38,stim,1.0
114,sub005,4,117,228,,,,,,,,blank,1.0
115,sub005,4,118,230,A,1,0.5832926030270755,236.00740617094561,237.0263387389714,237.92413008899894,39,stim,0.0
116,sub005,4,119,232,,,,,,,,blank,0.0
117,sub005,4,120,234,,,,,,,,blank,0.0
118,sub005,4,121,236,C,1,0.6999351370614022,242.007478114916,243.0263918149285,243.92414633894805,40,stim,0.0
119,sub005,4,122,238,,,,,,,,blank,0.0
120,sub005,4,123,240,B,1,0.6333691029576585,246.00746808201075,247.0264129319694,247.92418725800235,41,stim,1.0
121,sub005,4,124,242,,,,,,,,blank,1.0
122,sub005,4,125,244,,,,,,,,blank,1.0
123,sub005,4,126,246,,,,,,,,blank,1.0
124,sub005,4,127,248,C,2,0.5500142499804497,254.00756388995796,255.02663202397525,255.9242560819257,42,stim,1.0
125,sub005,4,128,250,,,,,,,,blank,1.0
126,sub005,4,129,252,B,1,0.5166000530589372,258.00758803694043,259.02648303692695,259.924245241913,43,stim,1.0
127,sub005,4,130,254,,,,,,,,blank,1.0
128,sub005,4,131,256,A,1,0.5832992750220001,262.0075758219464,263.0265167049365,263.9242840940133,44,stim,0.0
129,sub005,4,132,258,,,,,,,,blank,0.0
130,sub005,4,133,260,,,,,,,,blank,0.0
131,sub005,4,134,262,D,,,268.0077683419222,269.0273419219302,269.9243723769905,45,stim,1.0
132,sub005,4,135,264,,,,,,,,blank,1.0
133,sub005,4,136,266,,,,,,,,blank,1.0
134,sub005,4,137,268,C,1,0.5500744469463825,274.00773686997127,275.0275255360175,275.9244752129307,46,stim,0.0
135,sub005,4,138,270,,,,,,,,blank,0.0
136,sub005,4,139,272,D,1,0.4666589350672439,278.0078212999506,279.02752155892085,279.9244191419566,47,stim,1.0
137,sub005,4,140,274,,,,,,,,blank,1.0
138,sub005,4,141,276,,,,,,,,blank,1.0
139,sub005,4,142,278,,,,,,,,blank,1.0
140,sub005,4,143,280,,,,,,,,blank,1.0
