,Sub,Run,TR,Onset,Item,Resp,RT,image_on,button_on,button_off,Trial_ID,stim,switchButtonOrientation
0,sub005,2,3,0,,,,,,,,blank,0.0
1,sub005,2,4,2,,,,,,,,blank,0.0
2,sub005,2,5,4,,,,,,,,blank,0.0
3,sub005,2,6,6,B,2,0.5166715590748936,12.009241764899343,13.026136492961086,13.927179794991389,0,stim,0.0
4,sub005,2,7,8,,,,,,,,blank,0.0
5,sub005,2,8,10,C,2,0.9178395230555907,16.01054993690923,17.030571810901165,17.92838945996482,1,stim,1.0
6,sub005,2,9,12,,,,,,,,blank,1.0
7,sub005,2,10,14,,,,,,,,blank,1.0
8,sub005,2,11,16,A,1,0.41669001698028296,22.011820846935734,23.031512500951067,23.92844950198196,2,stim,0.0
9,sub005,2,12,18,,,,,,,,blank,0.0
10,sub005,2,13,20,,,,,,,,blank,0.0
11,sub005,2,14,22,D,1,0.5833777560619637,28.01180985290557,29.03151625895407,29.92856456199661,3,stim,1.0
12,sub005,2,15,24,,,,,,,,blank,1.0
13,sub005,2,16,26,A,1,0.4998794230632484,32.01190408191178,33.03062792692799,33.92845597292762,4,stim,0.0
14,sub005,2,17,28,,,,,,,,blank,0.0
15,sub005,2,18,30,,,,,,,,blank,0.0
16,sub005,2,19,32,,,,,,,,blank,0.0
17,sub005,2,20,34,B,1,0.7833955399692059,40.01175995799713,41.030692204949446,41.928535163984634,5,stim,1.0
18,sub005,2,21,36,,,,,,,,blank,1.0
19,sub005,2,22,38,,,,,,,,blank,1.0
20,sub005,2,23,40,,,,,,,,blank,1.0
21,sub005,2,24,42,C,1,0.9357883289922029,48.01187002391089,49.031014942913316,49.928583965986036,6,stim,0.0
22,sub005,2,25,44,,,,,,,,blank,0.0
23,sub005,2,26,46,D,1,0.7000931249931455,52.01186634693295,53.030794685008004,53.928569244919345,7,stim,1.0
24,sub005,2,27,48,,,,,,,,blank,1.0
25,sub005,2,28,50,,,,,,,,blank,1.0
26,sub005,2,29,52,,,,,,,,blank,1.0
27,sub005,2,30,54,B,1,0.5999862330500036,60.011968184961006,61.030824007000774,61.92858226399403,8,stim,1.0
28,sub005,2,31,56,,,,,,,,blank,1.0
29,sub005,2,32,58,A,1,0.5833292230963707,64.01199721591547,65.03102743497584,65.92866575997323,9,stim,0.0
30,sub005,2,33,60,,,,,,,,blank,0.0
31,sub005,2,34,62,,,,,,,,blank,0.0
32,sub005,2,35,64,C,1,0.43332335096783936,70.01214774895925,71.03169301897287,71.92881540593226,10,stim,0.0
33,sub005,2,36,66,,,,,,,,blank,0.0
34,sub005,2,37,68,D,1,0.799997597001493,74.01211401994806,75.03177093097474,75.92882569995709,11,stim,0.0
35,sub005,2,38,70,,,,,,,,blank,0.0
36,sub005,2,39,72,,,,,,,,blank,0.0
37,sub005,2,40,74,A,1,0.8999259979464114,80.01209910097532,81.03093618690036,81.93097927095369,12,stim,0.0
38,sub005,2,41,76,,,,,,,,blank,0.0
39,sub005,2,42,78,,,,,,,,blank,0.0
40,sub005,2,43,80,C,2,0.8168026650091633,86.01214463298675,87.0311818679329,87.92874273692723,13,stim,1.0
41,sub005,2,44,82,,,,,,,,blank,1.0
42,sub005,2,45,84,,,,,,,,blank,1.0
43,sub005,2,46,86,D,1,0.43337824405170977,92.01211177394725,93.03101679997053,93.9288602329325,14,stim,1.0
44,sub005,2,47,88,,,,,,,,blank,1.0
45,sub005,2,48,90,,,,,,,,blank,1.0
46,sub005,2,49,92,B,1,0.48333004605956376,98.01214476290625,99.03107079095207,99.9288904099958,15,stim,1.0
47,sub005,2,50,94,,,,,,,,blank,1.0
48,sub005,2,51,96,A,1,0.7999505249317735,102.01226900098845,103.03126822400372,103.9288144899765,16,stim,1.0
49,sub005,2,52,98,,,,,,,,blank,1.0
50,sub005,2,53,100,,,,,,,,blank,1.0
51,sub005,2,54,102,,,,,,,,blank,1.0
52,sub005,2,55,104,C,1,0.6500256239669397,110.01227411394939,111.03119856398553,111.92896356596611,17,stim,0.0
53,sub005,2,56,106,,,,,,,,blank,0.0
54,sub005,2,57,108,D,2,0.5000976719893515,114.0122514689574,115.03196377994027,115.92908444500063,18,stim,0.0
55,sub005,2,58,110,,,,,,,,blank,0.0
56,sub005,2,59,112,A,1,0.9833162389695644,118.01239440194331,119.03205164999235,119.92912617395632,19,stim,0.0
57,sub005,2,60,114,,,,,,,,blank,0.0
58,sub005,2,61,116,,,,,,,,blank,0.0
59,sub005,2,62,118,B,2,0.4500906929606572,124.01241195900366,125.03217535896692,125.92917457490694,20,stim,0.0
60,sub005,2,63,120,,,,,,,,blank,0.0
61,sub005,2,64,122,,,,,,,,blank,0.0
62,sub005,2,65,124,C,1,0.4666584470542148,130.01241311291233,131.03145427501295,131.92903028195724,21,stim,0.0
63,sub005,2,66,126,,,,,,,,blank,0.0
64,sub005,2,67,128,,,,,,,,blank,0.0
65,sub005,2,68,130,,,,,,,,blank,0.0
66,sub005,2,69,132,B,1,0.5501141150016338,138.0123688209569,139.0316080749035,139.9291548479814,22,stim,1.0
67,sub005,2,70,134,,,,,,,,blank,1.0
68,sub005,2,71,136,,,,,,,,blank,1.0
69,sub005,2,72,138,D,1,0.6167816079687327,144.012413776014,145.03132358798757,145.9291244839551,23,stim,1.0
70,sub005,2,73,140,,,,,,,,blank,1.0
71,sub005,2,74,142,C,1,0.5000177939655259,148.0125196930021,149.03138016199227,149.92910852492787,24,stim,0.0
72,sub005,2,75,144,,,,,,,,blank,0.0
73,sub005,2,76,146,B,1,0.4332316169748083,152.01256162696518,153.03158716799226,153.9292207059916,25,stim,1.0
74,sub005,2,77,148,,,,,,,,blank,1.0
75,sub005,2,78,150,,,,,,,,blank,1.0
76,sub005,2,79,152,C,2,0.7999824539292604,158.01260275300592,159.03142463089898,159.92920760600828,26,stim,1.0
77,sub005,2,80,154,,,,,,,,blank,1.0
78,sub005,2,81,156,,,,,,,,blank,1.0
79,sub005,2,82,158,A,1,0.4332707109861076,164.012724880944,165.0323709269287,165.92936005897354,27,stim,0.0
80,sub005,2,83,160,,,,,,,,blank,0.0
81,sub005,2,84,162,,,,,,,,blank,0.0
82,sub005,2,85,164,D,1,0.49998183897696435,170.01271083694883,171.03239224490244,171.9294585349271,28,stim,1.0
83,sub005,2,86,166,,,,,,,,blank,1.0
84,sub005,2,87,168,,,,,,,,blank,1.0
85,sub005,2,88,170,,,,,,,,blank,1.0
86,sub005,2,89,172,B,1,0.699950622045435,178.01282489392906,179.03257315792143,179.92943964200094,29,stim,1.0
87,sub005,2,90,174,,,,,,,,blank,1.0
88,sub005,2,91,176,,,,,,,,blank,1.0
89,sub005,2,92,178,A,2,0.5667647940572351,184.01278028590605,185.03256783389952,185.92951993097086,30,stim,1.0
90,sub005,2,93,180,,,,,,,,blank,1.0
91,sub005,2,94,182,,,,,,,,blank,1.0
92,sub005,2,95,184,C,1,0.46661748900078237,190.0128797639627,191.03247789293528,191.92957651300821,31,stim,0.0
93,sub005,2,96,186,,,,,,,,blank,0.0
94,sub005,2,97,188,D,2,0.5999898930313066,194.01286291191354,195.03248216491193,195.92959336994682,32,stim,0.0
95,sub005,2,98,190,,,,,,,,blank,0.0
96,sub005,2,99,192,A,,,198.0128806529101,199.0327663460048,199.92960227490403,33,stim,1.0
97,sub005,2,100,194,,2,1.2834114930592477,,,,,blank,1.0
98,sub005,2,101,196,D,2,0.416654727072455,202.01290578092448,203.0325840889709,203.9296524929814,34,stim,0.0
99,sub005,2,102,198,,,,,,,,blank,0.0
100,sub005,2,103,200,B,2,0.48336163396015763,206.01298979995772,207.03256076190155,207.929586514947,35,stim,0.0
101,sub005,2,104,202,,,,,,,,blank,0.0
102,sub005,2,105,204,,,,,,,,blank,0.0
103,sub005,2,106,206,D,2,0.6332672160351649,212.0130321579054,213.03270295099355,213.92963651299942,36,stim,0.0
104,sub005,2,107,208,,,,,,,,blank,0.0
105,sub005,2,108,210,,,,,,,,blank,0.0
106,sub005,2,109,212,C,2,0.8166113770566881,218.0130450419383,219.03266213892493,219.92967453890014,37,stim,1.0
107,sub005,2,110,214,,,,,,,,blank,1.0
108,sub005,2,111,216,A,2,0.516639263019897,222.01310420793016,223.03278216393664,223.92968449101318,38,stim,1.0
109,sub005,2,112,218,,,,,,,,blank,1.0
110,sub005,2,113,220,,,,,,,,blank,1.0
111,sub005,2,114,222,B,1,0.5000112409470603,228.01312296895776,229.03270005900413,229.92974047199823,39,stim,1.0
112,sub005,2,115,224,,,,,,,,blank,1.0
113,sub005,2,116,226,A,2,0.7331428420729935,232.01315693592187,233.03190283395816,233.92962044198066,40,stim,1.0
114,sub005,2,117,228,,,,,,,,blank,1.0
115,sub005,2,118,230,D,2,0.6665757579030469,236.01319698500447,237.03286217991263,237.92976761993486,41,stim,0.0
116,sub005,2,119,232,,,,,,,,blank,0.0
117,sub005,2,120,234,,,,,,,,blank,0.0
118,sub005,2,121,236,,,,,,,,blank,0.0
119,sub005,2,122,238,B,1,0.6500913080526516,244.01314510090742,245.0328771279892,245.92994677997194,42,stim,1.0
120,sub005,2,123,240,,,,,,,,blank,1.0
121,sub005,2,124,242,,,,,,,,blank,1.0
122,sub005,2,125,244,,,,,,,,blank,1.0
123,sub005,2,126,246,C,1,0.6666790919844061,252.0132756739622,253.03287081001326,253.9299086049432,43,stim,0.0
124,sub005,2,127,248,,,,,,,,blank,0.0
125,sub005,2,128,250,B,1,0.566583790932782,256.01331588998437,257.03283284197096,257.9299637369113,44,stim,1.0
126,sub005,2,129,252,,,,,,,,blank,1.0
127,sub005,2,130,254,A,2,0.8666612090310082,260.0132598419441,261.0330542459851,261.929980975925,45,stim,1.0
128,sub005,2,131,256,,,,,,,,blank,1.0
129,sub005,2,132,258,,,,,,,,blank,1.0
130,sub005,2,133,260,,,,,,,,blank,1.0
131,sub005,2,134,262,D,1,0.5500969089334831,268.0131728890119,269.03243134589866,269.9299406019272,46,stim,1.0
132,sub005,2,135,264,,,,,,,,blank,1.0
133,sub005,2,136,266,,,,,,,,blank,1.0
134,sub005,2,137,268,C,2,0.8832782109966502,274.01328604097944,275.0323849929264,275.93216960690916,47,stim,1.0
135,sub005,2,138,270,,,,,,,,blank,1.0
136,sub005,2,139,272,,,,,,,,blank,1.0
137,sub005,2,140,274,,,,,,,,blank,1.0
138,sub005,2,141,276,,,,,,,,blank,1.0
139,sub005,2,142,278,,,,,,,,blank,1.0
