,Sub,Run,TR,Onset,Item,Resp,RT,image_on,button_on,button_off,Trial_ID,stim,switchButtonOrientation
0,sub004,3,3,0,,,,,,,,blank,1.0
1,sub004,3,4,2,,,,,,,,blank,1.0
2,sub004,3,5,4,,,,,,,,blank,1.0
3,sub004,3,6,6,B,1,0.5666828850517049,12.011918540927581,13.028658477938734,13.928600710001774,0,stim,1.0
4,sub004,3,7,8,,,,,,,,blank,1.0
5,sub004,3,8,10,C,2,0.40002816799096763,16.011949709965847,17.02869305491913,17.928649723995477,1,stim,1.0
6,sub004,3,9,12,,,,,,,,blank,1.0
7,sub004,3,10,14,,,,,,,,blank,1.0
8,sub004,3,11,16,D,1,0.43334705906454474,22.012160633923486,23.028936276910827,23.928839382948354,2,stim,1.0
9,sub004,3,12,18,,,,,,,,blank,1.0
10,sub004,3,13,20,,,,,,,,blank,1.0
11,sub004,3,14,22,B,1,0.4333466000389308,28.01221240090672,29.028985237004235,29.92889578093309,3,stim,1.0
12,sub004,3,15,24,,,,,,,,blank,1.0
13,sub004,3,16,26,C,1,0.5000113430432975,32.01224726892542,33.029003932955675,33.9289215329336,4,stim,0.0
14,sub004,3,17,28,,,,,,,,blank,0.0
15,sub004,3,18,30,A,1,0.4166681650094688,36.01229023991618,37.02904022496659,37.92897961998824,5,stim,0.0
16,sub004,3,19,32,,,,,,,,blank,0.0
17,sub004,3,20,34,,,,,,,,blank,0.0
18,sub004,3,21,36,,,,,,,,blank,0.0
19,sub004,3,22,38,B,1,0.41670084197539836,44.01233955495991,45.02910832490306,45.929034029948525,6,stim,1.0
20,sub004,3,23,40,,,,,,,,blank,1.0
21,sub004,3,24,42,,,,,,,,blank,1.0
22,sub004,3,25,44,D,1,0.4500113119138405,50.01238926500082,51.029163158964366,51.929071492981166,7,stim,1.0
23,sub004,3,26,46,,,,,,,,blank,1.0
24,sub004,3,27,48,C,2,0.4500140600139275,54.01243341190275,55.02919364289846,55.929116542916745,8,stim,1.0
25,sub004,3,28,50,,,,,,,,blank,1.0
26,sub004,3,29,52,A,1,0.5333412250038236,58.01246817293577,59.02922516700346,59.92915344599169,9,stim,0.0
27,sub004,3,30,54,,,,,,,,blank,0.0
28,sub004,3,31,56,D,2,0.4333454939769581,62.012491672998294,63.02925813593902,63.92925452289637,10,stim,0.0
29,sub004,3,32,58,,,,,,,,blank,0.0
30,sub004,3,33,60,A,1,0.49999923806171864,66.01253229693975,67.02928715199232,67.92920163599774,11,stim,0.0
31,sub004,3,34,62,,,,,,,,blank,0.0
32,sub004,3,35,64,,,,,,,,blank,0.0
33,sub004,3,36,66,,,,,,,,blank,0.0
34,sub004,3,37,68,D,1,0.4166865040315315,74.01259329891764,75.02935496694408,75.92927836894523,12,stim,1.0
35,sub004,3,38,70,,,,,,,,blank,1.0
36,sub004,3,39,72,,,,,,,,blank,1.0
37,sub004,3,40,74,,,,,,,,blank,1.0
38,sub004,3,41,76,A,1,0.36667636106722057,82.01266824291088,83.02942114393227,83.9293397909496,13,stim,0.0
39,sub004,3,42,78,,,,,,,,blank,0.0
40,sub004,3,43,80,,,,,,,,blank,0.0
41,sub004,3,44,82,C,1,0.4500171699328348,88.01270903996192,89.02947777393274,89.92939358390868,14,stim,0.0
42,sub004,3,45,84,,,,,,,,blank,0.0
43,sub004,3,46,86,,,,,,,,blank,0.0
44,sub004,3,47,88,,,,,,,,blank,0.0
45,sub004,3,48,90,B,1,0.45001208898611367,96.01276931294706,97.02954614593182,97.92945267097093,15,stim,1.0
46,sub004,3,49,92,,,,,,,,blank,1.0
47,sub004,3,50,94,C,1,0.3833415339468047,100.01281242200639,101.0295681549469,101.92949315998703,16,stim,0.0
48,sub004,3,51,96,,,,,,,,blank,0.0
49,sub004,3,52,98,,,,,,,,blank,0.0
50,sub004,3,53,100,A,2,0.43334489909466356,106.01285754190758,107.0296193700051,107.92953861493152,17,stim,1.0
51,sub004,3,54,102,,,,,,,,blank,1.0
52,sub004,3,55,104,C,1,0.5500201670220122,110.01288916589692,111.02966280200053,111.92956865695305,18,stim,0.0
53,sub004,3,56,106,,,,,,,,blank,0.0
54,sub004,3,57,108,B,2,0.4000035868957639,114.01293509500101,115.02968687098473,115.92962169891689,19,stim,0.0
55,sub004,3,58,110,,,,,,,,blank,0.0
56,sub004,3,59,112,,,,,,,,blank,0.0
57,sub004,3,60,114,,,,,,,,blank,0.0
58,sub004,3,61,116,D,2,0.6000180449336767,122.012988211005,123.02974624594208,123.92967354599386,20,stim,0.0
59,sub004,3,62,118,,,,,,,,blank,0.0
60,sub004,3,63,120,,,,,,,,blank,0.0
61,sub004,3,64,122,A,1,0.48335390794090927,128.01303097698838,129.02982312696986,129.9297116129892,21,stim,0.0
62,sub004,3,65,124,,,,,,,,blank,0.0
63,sub004,3,66,126,D,2,0.41667336598038673,132.01307613099925,133.02982998394873,133.92976098496,22,stim,0.0
64,sub004,3,67,128,,,,,,,,blank,0.0
65,sub004,3,68,130,B,2,0.4499934420455247,136.0131272219587,137.02987906197086,137.92978288093582,23,stim,0.0
66,sub004,3,69,132,,,,,,,,blank,0.0
67,sub004,3,70,134,,,,,,,,blank,0.0
68,sub004,3,71,136,A,1,0.36667804594617337,142.01314671197906,143.02991950989235,143.92984455591068,24,stim,0.0
69,sub004,3,72,138,,,,,,,,blank,0.0
70,sub004,3,73,140,,,,,,,,blank,0.0
71,sub004,3,74,142,,,,,,,,blank,0.0
72,sub004,3,75,144,C,2,0.5000096800504252,150.0132186479168,151.03000044089276,151.92989681789186,25,stim,1.0
73,sub004,3,76,146,,,,,,,,blank,1.0
74,sub004,3,77,148,B,2,0.5500303820008412,154.01325243897736,155.03001127194148,155.9299395099515,26,stim,0.0
75,sub004,3,78,150,,,,,,,,blank,0.0
76,sub004,3,79,152,,,,,,,,blank,0.0
77,sub004,3,80,154,A,2,0.43334531295113266,160.01329759694636,161.03006416896824,161.9299757949775,27,stim,1.0
78,sub004,3,81,156,,,,,,,,blank,1.0
79,sub004,3,82,158,D,1,0.5166639820672572,164.0133501709206,165.0300920169102,165.93000914889853,28,stim,1.0
80,sub004,3,83,160,,,,,,,,blank,1.0
81,sub004,3,84,162,,,,,,,,blank,1.0
82,sub004,3,85,164,C,2,0.4166856990195811,170.0133762259502,171.03013624390587,171.93005471897777,29,stim,1.0
83,sub004,3,86,166,,,,,,,,blank,1.0
84,sub004,3,87,168,B,2,0.5333425640128553,174.01341119396966,175.03017436689697,175.93008635891601,30,stim,0.0
85,sub004,3,88,170,,,,,,,,blank,0.0
86,sub004,3,89,172,,,,,,,,blank,0.0
87,sub004,3,90,174,D,2,0.4833318870514631,180.01346907194238,181.0302471749019,181.9301558259176,31,stim,0.0
88,sub004,3,91,176,,,,,,,,blank,0.0
89,sub004,3,92,178,,,,,,,,blank,0.0
90,sub004,3,93,180,B,1,0.4833352389978245,186.01351203094237,187.03026796900667,187.93019957200158,32,stim,1.0
91,sub004,3,94,182,,,,,,,,blank,1.0
92,sub004,3,95,184,,,,,,,,blank,1.0
93,sub004,3,96,186,C,1,0.4666763860732317,192.0135675969068,193.03031091589946,193.93024690099992,33,stim,0.0
94,sub004,3,97,188,,,,,,,,blank,0.0
95,sub004,3,98,190,,,,,,,,blank,0.0
96,sub004,3,99,192,D,1,0.8333509539952502,198.01362172490917,199.03037324093748,199.9302754829405,34,stim,1.0
97,sub004,3,100,194,,,,,,,,blank,1.0
98,sub004,3,101,196,,,,,,,,blank,1.0
99,sub004,3,102,198,,,,,,,,blank,1.0
100,sub004,3,103,200,A,2,0.3833375939866528,206.01366812293418,207.03042430093046,207.93035014800262,35,stim,1.0
101,sub004,3,104,202,,,,,,,,blank,1.0
102,sub004,3,105,204,B,2,0.46668648498598486,210.01370136300102,211.03046726097818,211.9303826369578,36,stim,0.0
103,sub004,3,106,206,,,,,,,,blank,0.0
104,sub004,3,107,208,C,2,0.5333352030720562,214.0137412889162,215.0304917669855,215.93042079592124,37,stim,1.0
105,sub004,3,108,210,,,,,,,,blank,1.0
106,sub004,3,109,212,,,,,,,,blank,1.0
107,sub004,3,110,214,,,,,,,,blank,1.0
108,sub004,3,111,216,D,2,0.5666779129533097,222.01380545797292,223.03055477596354,223.93048878689297,38,stim,0.0
109,sub004,3,112,218,,,,,,,,blank,0.0
110,sub004,3,113,220,A,1,0.43334313901141286,226.01383148296736,227.0306092608953,227.930509588914,39,stim,0.0
111,sub004,3,114,222,,,,,,,,blank,0.0
112,sub004,3,115,224,,,,,,,,blank,0.0
113,sub004,3,116,226,D,1,0.5333513160003349,232.01387713092845,233.03063894691877,233.93057040998247,40,stim,1.0
114,sub004,3,117,228,,,,,,,,blank,1.0
115,sub004,3,118,230,,,,,,,,blank,1.0
116,sub004,3,119,232,,,,,,,,blank,1.0
117,sub004,3,120,234,A,2,0.4666810940252617,240.01394817989785,241.03070745198056,241.93063837196678,41,stim,1.0
118,sub004,3,121,236,,,,,,,,blank,1.0
119,sub004,3,122,238,,,,,,,,blank,1.0
120,sub004,3,123,240,C,2,0.45000759698450565,246.01399877900258,247.03074757789727,247.9306697169086,42,stim,1.0
121,sub004,3,124,242,,,,,,,,blank,1.0
122,sub004,3,125,244,,,,,,,,blank,1.0
123,sub004,3,126,246,B,2,0.5333434310741723,252.0140472279163,253.03080024197698,253.93073257792275,43,stim,0.0
124,sub004,3,127,248,,,,,,,,blank,0.0
125,sub004,3,128,250,,,,,,,,blank,0.0
126,sub004,3,129,252,A,2,0.45000727905426174,258.01408945489675,259.03085910191294,259.9307944679167,44,stim,1.0
127,sub004,3,130,254,,,,,,,,blank,1.0
128,sub004,3,131,256,,,,,,,,blank,1.0
129,sub004,3,132,258,C,1,0.5833389490144327,264.0141416969709,265.030894935946,265.9308237489313,45,stim,0.0
130,sub004,3,133,260,,,,,,,,blank,0.0
131,sub004,3,134,262,,,,,,,,blank,0.0
132,sub004,3,135,264,,,,,,,,blank,0.0
133,sub004,3,136,266,B,,,272.0142021049978,273.03096218791325,273.9308847549837,46,stim,0.0
134,sub004,3,137,268,,,,,,,,blank,0.0
135,sub004,3,138,270,,,,,,,,blank,0.0
136,sub004,3,139,272,D,2,0.5666720910230651,278.01424950396176,279.03101006592624,279.9309477949282,47,stim,0.0
137,sub004,3,140,274,,,,,,,,blank,0.0
138,sub004,3,141,276,,,,,,,,blank,0.0
139,sub004,3,142,278,,,,,,,,blank,0.0
140,sub004,3,143,280,,,,,,,,blank,0.0
